;  Table crwfpc2comp$wfpc2_f814w_004.tab  Thu 08:19:11 15-May-97
; WAVELENGTH   THROUGHPUT        error
;  ANGSTROMS TRANSMISSION TRANSMISSION
      1850.0    3.0384E-7           0.
      1860.0    3.1777E-5           0.
      1870.0    4.1021E-6           0.
      1880.0    4.5460E-7           0.
      1890.0    3.9253E-6           0.
      1900.0    3.0384E-7           0.
      1910.0    3.0384E-7           0.
      1920.0    5.9115E-5           0.
      1930.0    4.7065E-6           0.
      1940.0    3.0384E-7           0.
      1950.0    9.8300E-6           0.
      1960.0    2.7155E-5           0.
      1970.0    5.8327E-7           0.
      1980.0    3.0403E-7           0.
      1990.0    1.9141E-5           0.
      2000.0    3.1748E-6           0.
      2010.0    2.3926E-6           0.
      2020.0    1.4116E-5           0.
      2030.0    1.7440E-5           0.
      2040.0    6.6244E-7           0.
      2050.0    6.2833E-6           0.
      2060.0    1.6797E-6           0.
      2070.0    2.9519E-6           0.
      2080.0    2.6079E-6           0.
      2090.0    5.5156E-6           0.
      2100.0    5.4791E-6           0.
      2110.0    2.4983E-6           0.
      2120.0    3.0384E-7           0.
      2130.0    1.8449E-6           0.
      2140.0    1.3366E-6           0.
      2150.0    1.4548E-5           0.
      2160.0    1.3578E-6           0.
      2170.0    3.3401E-7           0.
      2180.0    4.2395E-7           0.
      2190.0    3.0384E-7           0.
      2200.0    3.9243E-7           0.
      2210.0    4.6066E-7           0.
      2220.0    1.9852E-6           0.
      2230.0    7.3326E-7           0.
      2240.0    3.0585E-7           0.
      2250.0    1.6162E-6           0.
      2260.0    9.4418E-7           0.
      2270.0    4.3039E-7           0.
      2280.0    3.0384E-7           0.
      2290.0    3.0384E-7           0.
      2300.0    3.3084E-7           0.
      2310.0    2.1620E-6           0.
      2320.0    3.9378E-7           0.
      2330.0    9.0228E-7           0.
      2340.0    4.0329E-7           0.
      2350.0    2.1284E-6           0.
      2360.0    3.5400E-6           0.
      2370.0    7.0713E-7           0.
      2380.0    7.9313E-6           0.
      2390.0    3.2863E-7           0.
      2400.0    4.4451E-7           0.
      2410.0    3.0384E-7           0.
      2420.0    1.0445E-6           0.
      2430.0    4.2020E-6           0.
      2440.0    6.7849E-7           0.
      2450.0    3.0384E-7           0.
      2460.0    6.4669E-7           0.
      2470.0    1.2597E-6           0.
      2480.0    3.9224E-6           0.
      2490.0    3.4170E-7           0.
      2500.0    4.2923E-7           0.
      2510.0    8.4098E-7           0.
      2520.0    4.6335E-7           0.
      2530.0    3.6024E-7           0.
      2540.0    1.3039E-6           0.
      2550.0    4.7286E-7           0.
      2560.0    3.0384E-7           0.
      2570.0    2.1995E-6           0.
      2580.0    1.8276E-6           0.
      2590.0    1.5691E-6           0.
      2600.0    1.0013E-6           0.
      2610.0    3.3439E-7           0.
      2620.0    1.6028E-6           0.
      2630.0    3.5467E-7           0.
      2640.0    6.6686E-7           0.
      2650.0    4.2145E-7           0.
      2660.0    3.2690E-6           0.
      2670.0    9.9934E-7           0.
      2680.0    4.4672E-7           0.
      2690.0    3.0384E-7           0.
      2700.0    4.2145E-7           0.
      2710.0    3.0384E-7           0.
      2720.0    3.9406E-7           0.
      2730.0    8.4271E-7           0.
      2740.0    6.6168E-7           0.
      2750.0    4.3558E-7           0.
      2760.0    6.3467E-7           0.
      2770.0    1.3433E-6           0.
      2780.0    3.1623E-7           0.
      2790.0    9.4139E-7           0.
      2800.0    3.0384E-7           0.
      2810.0    3.0384E-7           0.
      2820.0    6.4563E-7           0.
      2830.0    7.0482E-7           0.
      2840.0    1.1608E-6           0.
      2850.0    3.7139E-7           0.
      2860.0    2.0361E-6           0.
      2870.0    7.4230E-7           0.
      2880.0    7.4018E-7           0.
      2890.0    1.8891E-6           0.
      2900.0    1.2914E-6           0.
      2910.0    3.0384E-7           0.
      2920.0    1.3923E-6           0.
      2930.0    2.2081E-6           0.
      2940.0    4.7113E-7           0.
      2950.0    2.0631E-6           0.
      2960.0    3.0384E-7           0.
      2970.0    4.5201E-7           0.
      2980.0    4.6652E-7           0.
      2990.0    3.0384E-7           0.
      3000.0    2.7309E-6           0.
      3010.0    3.0384E-7           0.
      3020.0    7.1328E-7           0.
      3030.0    4.1299E-7           0.
      3040.0    6.9175E-7           0.
      3050.0    1.2895E-6           0.
      3060.0    5.7712E-7           0.
      3070.0    1.0253E-6           0.
      3080.0    6.6110E-7           0.
      3090.0    6.1949E-6           0.
      3100.0    1.1089E-5           0.
      3110.0    1.1454E-6           0.
      3120.0    3.0384E-7           0.
      3130.0    4.2039E-7           0.
      3140.0    2.0573E-6           0.
      3150.0    2.2072E-6           0.
      3160.0    2.9384E-6           0.
      3170.0    1.0387E-6           0.
      3180.0    1.0541E-6           0.
      3190.0    4.5566E-7           0.
      3200.0    7.3057E-7           0.
      3210.0    4.7872E-7           0.
      3220.0    5.6001E-7           0.
      3230.0    8.3243E-7           0.
      3240.0    1.8766E-6           0.
      3250.0    3.8205E-7           0.
      3260.0    3.0384E-7           0.
      3270.0    1.7421E-6           0.
      3280.0    3.4977E-6           0.
      3290.0    1.1742E-6           0.
      3300.0    3.0384E-7           0.
      3310.0    4.0050E-7           0.
      3320.0    4.6882E-7           0.
      3330.0    1.3337E-6           0.
      3340.0    6.5581E-7           0.
      3350.0    8.1071E-7           0.
      3360.0    3.0384E-7           0.
      3370.0    2.9221E-6           0.
      3380.0    3.7446E-7           0.
      3390.0    3.5284E-7           0.
      3400.0    3.4487E-7           0.
      3410.0    4.1530E-6           0.
      3420.0    2.1630E-6           0.
      3430.0    4.7238E-7           0.
      3440.0    4.2885E-7           0.
      3450.0    4.5614E-7           0.
      3460.0    2.1957E-6           0.
      3470.0    3.3439E-7           0.
      3480.0    2.3753E-6           0.
      3490.0    1.2991E-6           0.
      3500.0    5.3157E-6           0.
      3510.0    5.6357E-6           0.
      3520.0    3.0509E-7           0.
      3530.0    4.9544E-7           0.
      3540.0    1.3385E-6           0.
      3550.0    6.3621E-7           0.
      3560.0    5.0149E-7           0.
      3570.0    6.0402E-7           0.
      3580.0    1.6479E-6           0.
      3590.0    2.8049E-6           0.
      3600.0    5.8269E-7           0.
      3610.0    3.1960E-7           0.
      3620.0    3.7927E-6           0.
      3630.0    2.4503E-6           0.
      3640.0    3.0384E-7           0.
      3650.0    3.3065E-7           0.
      3660.0    8.7336E-7           0.
      3670.0    3.8273E-7           0.
      3680.0    2.4916E-6           0.
      3690.0    2.4686E-6           0.
      3700.0    9.2784E-7           0.
      3710.0    1.9381E-6           0.
      3720.0    7.4316E-7           0.
      3730.0    5.6222E-7           0.
      3740.0    5.9230E-7           0.
      3750.0    1.4644E-6           0.
      3760.0    3.0835E-7           0.
      3770.0    3.0384E-7           0.
      3780.0    6.1651E-7           0.
      3790.0    3.4612E-7           0.
      3800.0    5.6683E-7           0.
      3810.0    3.6130E-7           0.
      3820.0    2.3187E-6           0.
      3830.0    7.0972E-7           0.
      3840.0    3.0384E-7           0.
      3850.0    3.0384E-7           0.
      3860.0    3.9157E-7           0.
      3870.0    3.5880E-7           0.
      3880.0    5.9518E-7           0.
      3890.0    3.1844E-7           0.
      3900.0    2.7703E-6           0.
      3910.0    9.2035E-7           0.
      3920.0    3.7350E-7           0.
      3930.0    3.0384E-7           0.
      3940.0    6.6235E-7           0.
      3950.0    3.4343E-7           0.
      3960.0    5.6011E-7           0.
      3970.0    3.0624E-7           0.
      3980.0    4.5037E-7           0.
      3990.0    3.0384E-7           0.
      4000.0    1.1492E-6           0.
      4010.0    3.7312E-7           0.
      4020.0    1.3001E-6           0.
      4030.0    5.3282E-7           0.
      4040.0    3.0384E-7           0.
      4050.0    3.0384E-7           0.
      4060.0    6.8608E-7           0.
      4070.0    4.8516E-7           0.
      4080.0    1.6893E-6           0.
      4090.0    1.1685E-6           0.
      4100.0    3.3824E-7           0.
      4110.0    3.0384E-7           0.
      4120.0    4.2664E-7           0.
      4130.0    6.3650E-7           0.
      4140.0    4.0050E-7           0.
      4150.0    3.0384E-7           0.
      4160.0    7.1097E-7           0.
      4170.0    3.0384E-7           0.
      4180.0    3.0384E-7           0.
      4190.0    3.9858E-7           0.
      4200.0    3.2546E-7           0.
      4210.0    4.0387E-7           0.
      4220.0    4.5624E-7           0.
      4230.0    5.2609E-7           0.
      4240.0    3.8388E-7           0.
      4250.0    5.7673E-7           0.
      4260.0    3.0384E-7           0.
      4270.0    3.0384E-7           0.
      4280.0    3.0384E-7           0.
      4290.0    3.0384E-7           0.
      4300.0    3.0384E-7           0.
      4310.0    3.0384E-7           0.
      4320.0    3.0384E-7           0.
      4330.0    3.0384E-7           0.
      4340.0    3.0384E-7           0.
      4350.0    3.0384E-7           0.
      4360.0    3.0384E-7           0.
      4370.0    3.0384E-7           0.
      4380.0    3.0384E-7           0.
      4390.0    6.2804E-7           0.
      4400.0    1.4423E-5           0.
      4410.0    2.8385E-5           0.
      4420.0    3.6399E-5           0.
      4430.0    4.3500E-5           0.
      4440.0    3.9416E-5           0.
      4450.0    2.8452E-5           0.
      4460.0    1.8094E-5           0.
      4470.0    7.2942E-6           0.
      4480.0    1.4913E-6           0.
      4490.0    3.3093E-7           0.
      4500.0    3.8292E-7           0.
      4510.0    3.0384E-7           0.
      4520.0    1.2761E-6           0.
      4530.0    1.5691E-6           0.
      4540.0    5.1014E-7           0.
      4550.0    8.0437E-7           0.
      4560.0    3.7542E-7           0.
      4570.0    3.0384E-7           0.
      4580.0    5.0630E-7           0.
      4590.0    3.5861E-7           0.
      4600.0    6.4842E-7           0.
      4610.0    7.0857E-7           0.
      4620.0    4.5595E-7           0.
      4630.0    8.0235E-7           0.
      4640.0    3.0384E-7           0.
      4650.0    3.0384E-7           0.
      4660.0    3.0384E-7           0.
      4670.0    3.0384E-7           0.
      4680.0    6.0200E-7           0.
      4690.0    3.0384E-7           0.
      4700.0    5.7952E-7           0.
      4710.0    6.2929E-7           0.
      4720.0    6.3592E-7           0.
      4730.0    5.8557E-7           0.
      4740.0    3.0384E-7           0.
      4750.0    3.0384E-7           0.
      4760.0    7.1741E-7           0.
      4770.0    3.0384E-7           0.
      4780.0    4.0752E-7           0.
      4790.0    3.0384E-7           0.
      4800.0    5.5588E-7           0.
      4810.0    3.0384E-7           0.
      4820.0    3.0384E-7           0.
      4830.0    3.0768E-7           0.
      4840.0    3.7379E-7           0.
      4850.0    3.0384E-7           0.
      4860.0    3.0384E-7           0.
      4870.0    3.6985E-7           0.
      4880.0    3.0384E-7           0.
      4890.0    4.6969E-7           0.
      4900.0    6.1872E-7           0.
      4910.0    6.2555E-7           0.
      4920.0    3.0384E-7           0.
      4930.0    7.1923E-7           0.
      4940.0    6.2949E-7           0.
      4950.0    3.2315E-7           0.
      4960.0    3.6101E-7           0.
      4970.0    5.8567E-7           0.
      4980.0    3.0874E-7           0.
      4990.0    5.8519E-7           0.
      5000.0    3.0384E-7           0.
      5010.0    3.5697E-7           0.
      5020.0    3.0701E-7           0.
      5030.0    9.6667E-7           0.
      5040.0    3.3228E-7           0.
      5050.0    3.0384E-7           0.
      5060.0    3.7158E-7           0.
      5070.0    4.5748E-7           0.
      5080.0    3.1863E-7           0.
      5090.0    3.8753E-7           0.
      5100.0    5.9115E-7           0.
      5110.0    5.3195E-7           0.
      5120.0    3.3074E-7           0.
      5130.0    3.0384E-7           0.
      5140.0    4.2280E-7           0.
      5150.0    1.2511E-6           0.
      5160.0    7.7727E-7           0.
      5170.0    3.1931E-7           0.
      5180.0    3.0384E-7           0.
      5190.0    3.0384E-7           0.
      5200.0    3.0384E-7           0.
      5210.0    3.0384E-7           0.
      5220.0    8.0533E-7           0.
      5230.0    5.5319E-7           0.
      5240.0    4.9630E-7           0.
      5250.0    4.6517E-7           0.
      5260.0    5.5896E-7           0.
      5270.0    4.3827E-7           0.
      5280.0    7.8813E-7           0.
      5290.0    3.0384E-7           0.
      5300.0    3.3910E-7           0.
      5310.0    4.2453E-7           0.
      5320.0    1.0781E-6           0.
      5330.0    6.7570E-7           0.
      5340.0    5.9653E-7           0.
      5350.0    3.7360E-7           0.
      5360.0    1.1685E-6           0.
      5370.0    6.7599E-7           0.
      5380.0    3.0384E-7           0.
      5390.0    3.0384E-7           0.
      5400.0    1.2617E-6           0.
      5410.0    3.0384E-7           0.
      5420.0    3.6620E-7           0.
      5430.0    9.1064E-7           0.
      5440.0    6.5562E-7           0.
      5450.0    5.1129E-7           0.
      5460.0    3.0970E-7           0.
      5470.0    3.0384E-7           0.
      5480.0    3.7706E-7           0.
      5490.0    3.0384E-7           0.
      5500.0    1.1454E-6           0.
      5510.0    1.4269E-6           0.
      5520.0    6.6273E-7           0.
      5530.0    3.0384E-7           0.
      5540.0    3.9724E-7           0.
      5550.0    3.0384E-7           0.
      5560.0    4.0733E-7           0.
      5570.0    6.9511E-7           0.
      5580.0    1.0695E-6           0.
      5590.0    5.8721E-7           0.
      5600.0    8.3377E-7           0.
      5610.0    3.8792E-7           0.
      5620.0    6.9963E-7           0.
      5630.0    3.9733E-7           0.
      5640.0    4.1549E-7           0.
      5650.0    4.6248E-7           0.
      5660.0    5.7606E-7           0.
      5670.0    9.3793E-7           0.
      5680.0    3.0384E-7           0.
      5690.0    3.0384E-7           0.
      5700.0    3.8119E-7           0.
      5710.0    7.2721E-7           0.
      5720.0    3.3660E-7           0.
      5730.0    3.0384E-7           0.
      5740.0    3.3218E-7           0.
      5750.0    3.0384E-7           0.
      5760.0    1.2953E-6           0.
      5770.0    3.0384E-7           0.
      5780.0    4.3183E-7           0.
      5790.0    3.1393E-7           0.
      5800.0    5.1677E-7           0.
      5810.0    5.0130E-7           0.
      5820.0    1.8334E-6           0.
      5830.0    9.7339E-7           0.
      5840.0    1.0272E-6           0.
      5850.0    3.0384E-7           0.
      5860.0    3.0384E-7           0.
      5870.0    8.4953E-7           0.
      5880.0    3.9483E-7           0.
      5890.0    6.2900E-7           0.
      5900.0    5.1293E-7           0.
      5910.0    5.2955E-7           0.
      5920.0    9.5648E-7           0.
      5930.0    5.5646E-7           0.
      5940.0    4.5921E-7           0.
      5950.0    3.0384E-7           0.
      5960.0    4.2597E-7           0.
      5970.0    8.6625E-7           0.
      5980.0    1.0205E-6           0.
      5990.0    3.0384E-7           0.
      6000.0    1.1829E-6           0.
      6010.0    1.4875E-6           0.
      6020.0    3.0384E-7           0.
      6030.0    3.0384E-7           0.
      6040.0    1.7152E-6           0.
      6050.0    1.2338E-6           0.
      6060.0    8.5616E-7           0.
      6070.0    3.4746E-7           0.
      6080.0    3.0384E-7           0.
      6090.0    4.7228E-7           0.
      6100.0    9.6282E-7           0.
      6110.0    1.1963E-6           0.
      6120.0    3.0384E-7           0.
      6130.0    7.2807E-7           0.
      6140.0    4.6796E-7           0.
      6150.0    8.9450E-7           0.
      6160.0    3.0384E-7           0.
      6170.0    3.0384E-7           0.
      6180.0    4.0752E-7           0.
      6190.0    1.0512E-6           0.
      6200.0    3.0547E-7           0.
      6210.0    3.0384E-7           0.
      6220.0    5.0245E-7           0.
      6230.0    2.1976E-6           0.
      6240.0    1.3789E-6           0.
      6250.0    5.0591E-7           0.
      6260.0    1.5759E-6           0.
      6270.0    6.3660E-7           0.
      6280.0    4.4643E-7           0.
      6290.0    3.0384E-7           0.
      6300.0    6.1171E-7           0.
      6310.0    3.1354E-7           0.
      6320.0    3.9599E-7           0.
      6330.0    2.0361E-6           0.
      6340.0    4.1751E-7           0.
      6350.0    1.2569E-6           0.
      6360.0    4.0954E-7           0.
      6370.0    3.6505E-7           0.
      6380.0    1.4961E-6           0.
      6390.0    1.9775E-6           0.
      6400.0    7.1654E-7           0.
      6410.0    3.6360E-7           0.
      6420.0    1.3914E-6           0.
      6430.0    4.1818E-7           0.
      6440.0    1.4548E-6           0.
      6450.0    4.6306E-7           0.
      6460.0    6.7234E-7           0.
      6470.0    7.4777E-7           0.
      6480.0    1.2146E-6           0.
      6490.0    7.7170E-7           0.
      6500.0    4.2356E-7           0.
      6510.0    5.6078E-7           0.
      6520.0    3.0384E-7           0.
      6530.0    5.7212E-7           0.
      6540.0    1.2184E-6           0.
      6550.0    1.1819E-6           0.
      6560.0    1.3895E-6           0.
      6570.0    3.4112E-7           0.
      6580.0    6.6417E-7           0.
      6590.0    7.6180E-7           0.
      6600.0    3.5467E-7           0.
      6610.0    5.6049E-7           0.
      6620.0    1.3443E-6           0.
      6630.0    9.5754E-7           0.
      6640.0    4.9044E-7           0.
      6650.0    4.4960E-7           0.
      6660.0    7.8265E-7           0.
      6670.0    7.2827E-7           0.
      6680.0    4.6017E-7           0.
      6690.0    4.5268E-7           0.
      6700.0    1.0262E-6           0.
      6710.0    6.9031E-7           0.
      6720.0    1.6441E-6           0.
      6730.0    1.3529E-6           0.
      6740.0    4.0665E-6           0.
      6750.0    7.1837E-6           0.
      6760.0    9.4601E-6           0.
      6770.0    1.4442E-5           0.
      6780.0    2.1332E-5           0.
      6790.0    3.1373E-5           0.
      6800.0    4.9832E-5           0.
      6810.0    7.6132E-5           0.
      6820.0    1.1809E-4           0.
      6830.0    1.7892E-4           0.
      6840.0    2.7972E-4           0.
      6850.0    4.0915E-4           0.
      6860.0    6.3016E-4           0.
      6870.0    9.0565E-4           0.
      6880.0    0.0013606           0.
      6890.0    0.0018718           0.
      6920.0    0.0036831           0.
      6922.0     0.003932           0.
      6924.0    0.0042414           0.
      6926.0    0.0045489           0.
      6928.0    0.0048939           0.
      6930.0    0.0052196           0.
      6932.0    0.0055838           0.
      6934.0    0.0060056           0.
      6936.0    0.0064275           0.
      6938.0    0.0068685           0.
      6940.0     0.007349           0.
      6942.0    0.0078861           0.
      6944.0     0.008405           0.
      6946.0    0.0089786           0.
      6948.0     0.009609           0.
      6950.0     0.010243           0.
      6952.0     0.010973           0.
      6954.0     0.011704           0.
      6956.0     0.012472           0.
      6958.0     0.013328           0.
      6960.0     0.014212           0.
      6962.0     0.015153           0.
      6964.0      0.01621           0.
      6966.0     0.017277           0.
      6968.0     0.018468           0.
      6970.0      0.01966           0.
      6972.0     0.020967           0.
      6974.0     0.022322           0.
      6976.0     0.023801           0.
      6978.0     0.025358           0.
      6980.0      0.02704           0.
      6982.0     0.028817           0.
      6984.0     0.030701           0.
      6986.0     0.032738           0.
      6988.0     0.034842           0.
      6990.0     0.037072           0.
      6992.0     0.039483           0.
      6994.0     0.041991           0.
      6996.0     0.044663           0.
      6998.0     0.047478           0.
      7000.0     0.050543           0.
      7002.0      0.05382           0.
      7004.0     0.057289           0.
      7006.0     0.060969           0.
      7008.0     0.064938           0.
      7010.0      0.06906           0.
      7012.0     0.073374           0.
      7014.0     0.077977           0.
      7016.0     0.082964           0.
      7018.0     0.088211           0.
      7020.0     0.093813           0.
      7022.0     0.099741           0.
      7024.0      0.10589           0.
      7026.0      0.11252           0.
      7028.0      0.11973           0.
      7030.0      0.12713           0.
      7032.0      0.13501           0.
      7034.0      0.14327           0.
      7036.0      0.15201           0.
      7038.0      0.16124           0.
      7040.0      0.17094           0.
      7042.0      0.18132           0.
      7044.0      0.19208           0.
      7046.0      0.20323           0.
      7048.0      0.21486           0.
      7050.0      0.22696           0.
      7052.0      0.23974           0.
      7054.0        0.253           0.
      7056.0      0.26694           0.
      7058.0      0.28135           0.
      7060.0      0.29625           0.
      7062.0      0.31152           0.
      7064.0      0.32709           0.
      7066.0      0.34333           0.
      7068.0      0.35995           0.
      7070.0      0.37686           0.
      7072.0      0.39426           0.
      7074.0      0.41223           0.
      7076.0      0.43039           0.
      7078.0      0.44855           0.
      7080.0      0.46681           0.
      7082.0      0.48535           0.
      7084.0      0.50409           0.
      7086.0      0.52283           0.
      7088.0      0.54108           0.
      7090.0      0.55953           0.
      7092.0       0.5775           0.
      7094.0      0.59509           0.
      7096.0      0.61229           0.
      7098.0      0.62939           0.
      7100.0      0.64582           0.
      7102.0      0.66187           0.
      7104.0      0.67724           0.
      7106.0      0.69194           0.
      7108.0      0.70607           0.
      7110.0      0.71952           0.
      7112.0      0.73221           0.
      7114.0      0.74374           0.
      7116.0      0.75517           0.
      7118.0      0.76584           0.
      7120.0      0.77602           0.
      7122.0      0.78573           0.
      7124.0      0.79438           0.
      7126.0      0.80274           0.
      7128.0      0.81042           0.
      7130.0      0.81744           0.
      7132.0      0.82388           0.
      7134.0      0.82993           0.
      7136.0       0.8356           0.
      7138.0       0.8404           0.
      7140.0      0.84502           0.
      7142.0      0.84895           0.
      7144.0       0.8528           0.
      7146.0      0.85597           0.
      7148.0      0.85914           0.
      7150.0      0.86202           0.
      7152.0      0.86462           0.
      7154.0      0.86683           0.
      7156.0      0.86885           0.
      7158.0      0.87106           0.
      7160.0      0.87288           0.
      7162.0      0.87442           0.
      7164.0      0.87576           0.
      7166.0      0.87711           0.
      7168.0      0.87826           0.
      7170.0       0.8797           0.
      7172.0      0.88086           0.
      7174.0      0.88191           0.
      7176.0      0.88307           0.
      7178.0      0.88422           0.
      7180.0      0.88508           0.
      7182.0      0.88585           0.
      7184.0      0.88681           0.
      7186.0      0.88778           0.
      7188.0      0.88845           0.
      7190.0      0.88941           0.
      7192.0      0.89037           0.
      7194.0      0.89123           0.
      7196.0      0.89239           0.
      7198.0      0.89344           0.
      7200.0       0.8945           0.
      7202.0      0.89565           0.
      7204.0      0.89671           0.
      7206.0      0.89786           0.
      7208.0      0.89883           0.
      7210.0      0.89988           0.
      7212.0      0.90075           0.
      7214.0       0.9019           0.
      7216.0      0.90305           0.
      7218.0      0.90392           0.
      7220.0      0.90498           0.
      7222.0      0.90613           0.
      7224.0      0.90719           0.
      7226.0      0.90853           0.
      7228.0      0.90988           0.
      7230.0      0.91093           0.
      7232.0      0.91209           0.
      7234.0      0.91305           0.
      7236.0       0.9141           0.
      7238.0      0.91535           0.
      7240.0      0.91651           0.
      7242.0      0.91756           0.
      7244.0      0.91852           0.
      7246.0      0.91958           0.
      7248.0      0.92045           0.
      7250.0      0.92112           0.
      7252.0      0.92208           0.
      7254.0      0.92304           0.
      7256.0      0.92391           0.
      7258.0      0.92467           0.
      7260.0      0.92573           0.
      7262.0      0.92631           0.
      7264.0      0.92708           0.
      7266.0      0.92784           0.
      7268.0      0.92823           0.
      7270.0      0.92871           0.
      7272.0      0.92938           0.
      7274.0      0.93005           0.
      7276.0      0.93025           0.
      7278.0      0.93054           0.
      7280.0      0.93082           0.
      7282.0       0.9313           0.
      7284.0      0.93159           0.
      7286.0      0.93178           0.
      7288.0      0.93207           0.
      7290.0      0.93226           0.
      7292.0      0.93207           0.
      7294.0      0.93188           0.
      7296.0      0.93188           0.
      7298.0       0.9315           0.
      7300.0      0.93111           0.
      7302.0      0.93111           0.
      7304.0      0.93102           0.
      7306.0      0.93082           0.
      7308.0      0.93063           0.
      7310.0      0.92996           0.
      7312.0      0.92957           0.
      7314.0        0.929           0.
      7316.0      0.92833           0.
      7318.0      0.92804           0.
      7320.0      0.92746           0.
      7322.0      0.92698           0.
      7324.0      0.92621           0.
      7326.0      0.92544           0.
      7328.0      0.92467           0.
      7330.0      0.92429           0.
      7332.0      0.92362           0.
      7334.0      0.92294           0.
      7336.0      0.92208           0.
      7338.0      0.92102           0.
      7340.0      0.91987           0.
      7342.0        0.919           0.
      7344.0      0.91824           0.
      7346.0      0.91756           0.
      7348.0      0.91699           0.
      7350.0      0.91612           0.
      7352.0      0.91535           0.
      7354.0      0.91449           0.
      7356.0      0.91343           0.
      7358.0      0.91257           0.
      7360.0       0.9117           0.
      7362.0      0.91064           0.
      7364.0      0.90978           0.
      7366.0      0.90882           0.
      7368.0      0.90767           0.
      7370.0      0.90671           0.
      7372.0      0.90603           0.
      7374.0      0.90526           0.
      7376.0       0.9043           0.
      7378.0      0.90382           0.
      7380.0      0.90277           0.
      7382.0      0.90209           0.
      7384.0      0.90132           0.
      7386.0      0.90065           0.
      7388.0      0.89979           0.
      7390.0      0.89911           0.
      7392.0      0.89825           0.
      7394.0      0.89748           0.
      7396.0      0.89671           0.
      7398.0      0.89614           0.
      7400.0      0.89527           0.
      7402.0      0.89479           0.
      7404.0      0.89421           0.
      7406.0      0.89373           0.
      7408.0      0.89335           0.
      7410.0      0.89258           0.
      7412.0       0.8921           0.
      7414.0      0.89152           0.
      7416.0      0.89095           0.
      7418.0      0.89027           0.
      7420.0      0.88989           0.
      7422.0       0.8897           0.
      7424.0       0.8895           0.
      7426.0      0.88902           0.
      7428.0      0.88883           0.
      7430.0      0.88835           0.
      7432.0      0.88816           0.
      7434.0      0.88787           0.
      7436.0      0.88778           0.
      7438.0      0.88768           0.
      7440.0      0.88758           0.
      7442.0      0.88749           0.
      7444.0      0.88739           0.
      7446.0       0.8871           0.
      7448.0       0.8871           0.
      7450.0       0.8872           0.
      7452.0      0.88701           0.
      7454.0      0.88729           0.
      7456.0      0.88739           0.
      7458.0      0.88729           0.
      7460.0      0.88739           0.
      7462.0      0.88739           0.
      7464.0      0.88749           0.
      7466.0      0.88768           0.
      7468.0      0.88797           0.
      7470.0      0.88816           0.
      7472.0      0.88835           0.
      7474.0      0.88874           0.
      7476.0      0.88902           0.
      7478.0      0.88922           0.
      7480.0       0.8895           0.
      7482.0      0.89008           0.
      7484.0      0.89047           0.
      7486.0      0.89066           0.
      7488.0      0.89133           0.
      7490.0      0.89181           0.
      7492.0       0.8922           0.
      7494.0      0.89258           0.
      7496.0      0.89287           0.
      7498.0      0.89306           0.
      7500.0      0.89364           0.
      7502.0      0.89392           0.
      7504.0       0.8945           0.
      7506.0      0.89527           0.
      7508.0      0.89556           0.
      7510.0      0.89623           0.
      7512.0       0.8969           0.
      7514.0      0.89758           0.
      7516.0      0.89806           0.
      7518.0      0.89873           0.
      7520.0      0.89911           0.
      7522.0      0.89979           0.
      7524.0      0.90065           0.
      7526.0      0.90132           0.
      7528.0       0.9019           0.
      7530.0      0.90267           0.
      7532.0      0.90325           0.
      7534.0      0.90382           0.
      7536.0      0.90421           0.
      7538.0      0.90469           0.
      7540.0      0.90488           0.
      7542.0      0.90555           0.
      7544.0      0.90613           0.
      7546.0      0.90671           0.
      7548.0      0.90747           0.
      7550.0      0.90834           0.
      7552.0      0.90882           0.
      7554.0      0.90949           0.
      7556.0      0.91055           0.
      7558.0      0.91103           0.
      7560.0      0.91151           0.
      7562.0      0.91237           0.
      7564.0      0.91285           0.
      7566.0      0.91343           0.
      7568.0      0.91401           0.
      7570.0      0.91487           0.
      7572.0      0.91593           0.
      7574.0       0.9166           0.
      7576.0      0.91718           0.
      7578.0      0.91718           0.
      7580.0      0.91776           0.
      7582.0      0.91824           0.
      7584.0      0.91872           0.
      7586.0       0.9191           0.
      7588.0      0.91968           0.
      7590.0      0.92035           0.
      7592.0      0.92102           0.
      7594.0       0.9215           0.
      7596.0      0.92189           0.
      7598.0      0.92227           0.
      7600.0      0.92294           0.
      7602.0      0.92342           0.
      7604.0      0.92391           0.
      7606.0      0.92429           0.
      7608.0      0.92477           0.
      7610.0      0.92544           0.
      7612.0      0.92573           0.
      7614.0       0.9264           0.
      7616.0      0.92688           0.
      7618.0      0.92727           0.
      7620.0      0.92804           0.
      7622.0      0.92833           0.
      7624.0      0.92881           0.
      7626.0      0.92929           0.
      7628.0      0.92977           0.
      7630.0      0.92996           0.
      7632.0      0.93044           0.
      7634.0      0.93054           0.
      7636.0      0.93082           0.
      7638.0       0.9315           0.
      7640.0      0.93178           0.
      7642.0      0.93226           0.
      7644.0      0.93246           0.
      7646.0      0.93284           0.
      7648.0      0.93313           0.
      7650.0      0.93323           0.
      7652.0      0.93332           0.
      7654.0      0.93342           0.
      7656.0       0.9338           0.
      7658.0      0.93409           0.
      7660.0      0.93457           0.
      7662.0      0.93505           0.
      7664.0      0.93534           0.
      7666.0      0.93553           0.
      7668.0      0.93582           0.
      7670.0      0.93601           0.
      7672.0       0.9362           0.
      7674.0       0.9363           0.
      7676.0      0.93659           0.
      7678.0      0.93697           0.
      7680.0      0.93707           0.
      7682.0      0.93736           0.
      7684.0      0.93755           0.
      7686.0      0.93755           0.
      7688.0      0.93784           0.
      7690.0      0.93793           0.
      7692.0      0.93832           0.
      7694.0      0.93841           0.
      7696.0       0.9389           0.
      7698.0       0.9388           0.
      7700.0      0.93899           0.
      7702.0      0.93918           0.
      7704.0      0.93909           0.
      7706.0      0.93909           0.
      7708.0      0.93928           0.
      7710.0      0.93909           0.
      7712.0      0.93947           0.
      7714.0      0.93957           0.
      7716.0      0.93957           0.
      7718.0      0.93938           0.
      7720.0      0.93966           0.
      7722.0      0.93986           0.
      7724.0      0.93976           0.
      7726.0      0.93986           0.
      7728.0      0.93976           0.
      7730.0      0.93995           0.
      7732.0      0.94014           0.
      7734.0      0.94024           0.
      7736.0      0.94034           0.
      7738.0      0.94062           0.
      7740.0      0.94053           0.
      7742.0      0.94034           0.
      7744.0      0.94043           0.
      7746.0      0.94062           0.
      7748.0      0.94072           0.
      7750.0      0.94082           0.
      7752.0      0.94082           0.
      7754.0      0.94062           0.
      7756.0      0.94053           0.
      7758.0      0.94043           0.
      7760.0      0.94043           0.
      7762.0      0.94043           0.
      7764.0      0.94034           0.
      7766.0      0.94034           0.
      7768.0      0.94014           0.
      7770.0      0.94024           0.
      7772.0      0.94062           0.
      7774.0      0.94053           0.
      7776.0      0.94072           0.
      7778.0      0.94082           0.
      7780.0      0.94062           0.
      7782.0      0.94062           0.
      7784.0      0.94024           0.
      7786.0      0.93995           0.
      7788.0      0.93995           0.
      7790.0      0.93986           0.
      7792.0      0.93976           0.
      7794.0      0.93976           0.
      7796.0      0.93995           0.
      7798.0      0.93976           0.
      7800.0      0.93947           0.
      7802.0      0.93947           0.
      7804.0      0.93899           0.
      7806.0      0.93918           0.
      7808.0      0.93899           0.
      7810.0      0.93899           0.
      7812.0       0.9389           0.
      7814.0       0.9388           0.
      7816.0      0.93861           0.
      7818.0      0.93851           0.
      7820.0      0.93851           0.
      7822.0      0.93841           0.
      7824.0      0.93822           0.
      7826.0      0.93813           0.
      7828.0      0.93793           0.
      7830.0      0.93803           0.
      7832.0      0.93765           0.
      7834.0      0.93784           0.
      7836.0      0.93784           0.
      7838.0      0.93755           0.
      7840.0      0.93726           0.
      7842.0      0.93697           0.
      7844.0      0.93649           0.
      7846.0      0.93659           0.
      7848.0       0.9362           0.
      7850.0      0.93611           0.
      7852.0      0.93601           0.
      7854.0      0.93572           0.
      7856.0      0.93572           0.
      7858.0      0.93572           0.
      7860.0      0.93611           0.
      7862.0      0.93601           0.
      7864.0      0.93582           0.
      7866.0      0.93572           0.
      7868.0      0.93544           0.
      7870.0      0.93515           0.
      7872.0      0.93486           0.
      7874.0      0.93467           0.
      7876.0      0.93438           0.
      7878.0      0.93447           0.
      7880.0      0.93371           0.
      7882.0      0.93342           0.
      7884.0      0.93323           0.
      7886.0      0.93303           0.
      7888.0      0.93284           0.
      7890.0      0.93284           0.
      7892.0      0.93294           0.
      7894.0      0.93303           0.
      7896.0      0.93294           0.
      7898.0      0.93275           0.
      7900.0      0.93265           0.
      7902.0      0.93255           0.
      7904.0      0.93246           0.
      7906.0      0.93207           0.
      7908.0      0.93178           0.
      7910.0       0.9314           0.
      7912.0      0.93121           0.
      7914.0      0.93073           0.
      7916.0      0.93073           0.
      7918.0      0.93073           0.
      7920.0      0.93063           0.
      7922.0      0.93025           0.
      7924.0      0.92996           0.
      7926.0      0.92986           0.
      7928.0      0.92957           0.
      7930.0      0.92967           0.
      7932.0      0.92957           0.
      7934.0      0.92919           0.
      7936.0      0.92909           0.
      7938.0      0.92871           0.
      7940.0      0.92852           0.
      7942.0      0.92804           0.
      7944.0      0.92804           0.
      7946.0      0.92765           0.
      7948.0      0.92717           0.
      7950.0      0.92736           0.
      7952.0      0.92717           0.
      7954.0      0.92727           0.
      7956.0      0.92736           0.
      7958.0      0.92736           0.
      7960.0      0.92727           0.
      7962.0      0.92727           0.
      7964.0      0.92727           0.
      7966.0      0.92688           0.
      7968.0      0.92688           0.
      7970.0      0.92669           0.
      7972.0       0.9264           0.
      7974.0       0.9264           0.
      7976.0      0.92612           0.
      7978.0      0.92573           0.
      7980.0      0.92563           0.
      7982.0      0.92535           0.
      7984.0      0.92487           0.
      7986.0      0.92458           0.
      7988.0      0.92458           0.
      7990.0      0.92487           0.
      7992.0      0.92487           0.
      7994.0      0.92506           0.
      7996.0      0.92506           0.
      7998.0      0.92487           0.
      8000.0      0.92246           0.
      8002.0      0.92285           0.
      8004.0      0.92314           0.
      8006.0      0.92314           0.
      8008.0      0.92189           0.
      8010.0       0.9216           0.
      8012.0      0.92141           0.
      8014.0       0.9217           0.
      8016.0      0.92208           0.
      8018.0      0.92198           0.
      8020.0       0.9217           0.
      8022.0      0.92131           0.
      8024.0      0.92102           0.
      8026.0      0.92093           0.
      8028.0       0.9216           0.
      8030.0      0.92218           0.
      8032.0      0.92179           0.
      8034.0      0.92256           0.
      8036.0      0.92227           0.
      8038.0      0.92189           0.
      8040.0      0.92179           0.
      8042.0      0.92189           0.
      8044.0      0.92189           0.
      8046.0      0.92275           0.
      8048.0      0.92314           0.
      8050.0      0.92314           0.
      8052.0      0.92342           0.
      8054.0      0.92391           0.
      8056.0      0.92362           0.
      8058.0      0.92362           0.
      8060.0      0.92333           0.
      8062.0      0.92285           0.
      8064.0      0.92342           0.
      8066.0      0.92362           0.
      8068.0       0.9241           0.
      8070.0      0.92448           0.
      8072.0      0.92496           0.
      8074.0      0.92477           0.
      8076.0      0.92429           0.
      8078.0      0.92448           0.
      8080.0        0.924           0.
      8082.0      0.92352           0.
      8084.0      0.92371           0.
      8086.0      0.92429           0.
      8088.0      0.92525           0.
      8090.0      0.92631           0.
      8092.0      0.92669           0.
      8094.0       0.9266           0.
      8096.0      0.92621           0.
      8098.0      0.92631           0.
      8100.0      0.92602           0.
      8102.0      0.92602           0.
      8104.0      0.92612           0.
      8106.0       0.9265           0.
      8108.0      0.92688           0.
      8110.0      0.92756           0.
      8112.0      0.92765           0.
      8114.0      0.92765           0.
      8116.0      0.92736           0.
      8118.0      0.92727           0.
      8120.0      0.92746           0.
      8122.0      0.92727           0.
      8124.0      0.92765           0.
      8126.0      0.92794           0.
      8128.0      0.92823           0.
      8130.0      0.92842           0.
      8132.0       0.9289           0.
      8134.0      0.92957           0.
      8136.0      0.93015           0.
      8138.0      0.93025           0.
      8140.0      0.93015           0.
      8142.0      0.93082           0.
      8144.0      0.93102           0.
      8146.0      0.93063           0.
      8148.0      0.93092           0.
      8150.0      0.93082           0.
      8152.0      0.93121           0.
      8154.0       0.9313           0.
      8156.0      0.93207           0.
      8158.0      0.93226           0.
      8160.0      0.93303           0.
      8162.0      0.93332           0.
      8164.0       0.9339           0.
      8166.0      0.93467           0.
      8168.0      0.93457           0.
      8170.0      0.93467           0.
      8172.0      0.93457           0.
      8174.0      0.93428           0.
      8176.0      0.93409           0.
      8178.0      0.93428           0.
      8180.0      0.93438           0.
      8182.0      0.93476           0.
      8184.0      0.93515           0.
      8186.0       0.9363           0.
      8188.0      0.93649           0.
      8190.0       0.9363           0.
      8192.0      0.93649           0.
      8194.0      0.93649           0.
      8196.0      0.93592           0.
      8198.0      0.93505           0.
      8200.0      0.93601           0.
      8202.0      0.93659           0.
      8204.0      0.93736           0.
      8206.0      0.93774           0.
      8208.0      0.93803           0.
      8210.0      0.93832           0.
      8212.0       0.9388           0.
      8214.0       0.9389           0.
      8216.0      0.93899           0.
      8218.0      0.93899           0.
      8220.0       0.9388           0.
      8222.0       0.9388           0.
      8224.0      0.93909           0.
      8226.0      0.93938           0.
      8228.0      0.93938           0.
      8230.0      0.93947           0.
      8232.0      0.94034           0.
      8234.0      0.94034           0.
      8236.0      0.94053           0.
      8238.0       0.9413           0.
      8240.0       0.9412           0.
      8242.0       0.9412           0.
      8244.0      0.94043           0.
      8246.0      0.94091           0.
      8248.0      0.94091           0.
      8250.0      0.94149           0.
      8252.0      0.94226           0.
      8254.0      0.94283           0.
      8256.0      0.94322           0.
      8258.0      0.94303           0.
      8260.0      0.94341           0.
      8262.0      0.94351           0.
      8264.0      0.94332           0.
      8266.0      0.94351           0.
      8268.0       0.9436           0.
      8270.0       0.9436           0.
      8272.0      0.94341           0.
      8274.0      0.94341           0.
      8276.0      0.94303           0.
      8278.0       0.9437           0.
      8280.0      0.94332           0.
      8282.0      0.94341           0.
      8284.0      0.94341           0.
      8286.0      0.94332           0.
      8288.0      0.94332           0.
      8290.0       0.9436           0.
      8292.0       0.9436           0.
      8294.0      0.94399           0.
      8296.0      0.94447           0.
      8298.0      0.94533           0.
      8300.0       0.9461           0.
      8302.0      0.94581           0.
      8304.0      0.94591           0.
      8306.0       0.9462           0.
      8308.0      0.94504           0.
      8310.0      0.94485           0.
      8312.0      0.94466           0.
      8314.0      0.94466           0.
      8316.0      0.94514           0.
      8318.0       0.9462           0.
      8320.0      0.94601           0.
      8322.0       0.9461           0.
      8324.0      0.94658           0.
      8326.0      0.94581           0.
      8328.0      0.94524           0.
      8330.0      0.94495           0.
      8332.0      0.94514           0.
      8334.0      0.94572           0.
      8336.0      0.94639           0.
      8338.0      0.94697           0.
      8340.0      0.94754           0.
      8342.0      0.94764           0.
      8344.0      0.94725           0.
      8346.0      0.94658           0.
      8348.0       0.9461           0.
      8350.0      0.94581           0.
      8352.0      0.94591           0.
      8354.0       0.9462           0.
      8356.0      0.94697           0.
      8358.0      0.94706           0.
      8360.0      0.94697           0.
      8362.0      0.94697           0.
      8364.0      0.94601           0.
      8366.0       0.9462           0.
      8368.0      0.94543           0.
      8370.0      0.94495           0.
      8372.0      0.94533           0.
      8374.0      0.94562           0.
      8376.0      0.94629           0.
      8378.0      0.94668           0.
      8380.0      0.94754           0.
      8382.0      0.94812           0.
      8384.0      0.94764           0.
      8386.0      0.94831           0.
      8388.0      0.94764           0.
      8390.0      0.94706           0.
      8392.0      0.94629           0.
      8394.0      0.94668           0.
      8396.0      0.94649           0.
      8398.0      0.94629           0.
      8400.0      0.94706           0.
      8402.0      0.94601           0.
      8404.0      0.94553           0.
      8406.0      0.94524           0.
      8408.0      0.94533           0.
      8410.0      0.94485           0.
      8412.0      0.94553           0.
      8414.0      0.94553           0.
      8416.0      0.94581           0.
      8418.0      0.94543           0.
      8420.0      0.94514           0.
      8422.0      0.94543           0.
      8424.0      0.94572           0.
      8426.0      0.94572           0.
      8428.0      0.94629           0.
      8430.0       0.9461           0.
      8432.0      0.94572           0.
      8434.0      0.94504           0.
      8436.0      0.94456           0.
      8438.0      0.94351           0.
      8440.0      0.94399           0.
      8442.0      0.94466           0.
      8444.0      0.94601           0.
      8446.0      0.94572           0.
      8448.0      0.94553           0.
      8450.0      0.94476           0.
      8452.0      0.94447           0.
      8454.0      0.94332           0.
      8456.0      0.94322           0.
      8458.0      0.94303           0.
      8460.0      0.94341           0.
      8462.0       0.9436           0.
      8464.0      0.94293           0.
      8466.0      0.94255           0.
      8468.0      0.94303           0.
      8470.0      0.94341           0.
      8472.0      0.94293           0.
      8474.0      0.94274           0.
      8476.0      0.94264           0.
      8478.0      0.94245           0.
      8480.0      0.94255           0.
      8482.0      0.94293           0.
      8484.0      0.94274           0.
      8486.0      0.94235           0.
      8488.0      0.94245           0.
      8490.0      0.94235           0.
      8492.0      0.94159           0.
      8494.0      0.94111           0.
      8496.0      0.94082           0.
      8498.0      0.94043           0.
      8500.0      0.93976           0.
      8502.0      0.93909           0.
      8504.0      0.93947           0.
      8506.0      0.93976           0.
      8508.0      0.93976           0.
      8510.0      0.94005           0.
      8512.0      0.93986           0.
      8514.0      0.93918           0.
      8516.0      0.93832           0.
      8518.0      0.93822           0.
      8520.0      0.93832           0.
      8522.0      0.93784           0.
      8524.0      0.93745           0.
      8526.0      0.93697           0.
      8528.0      0.93736           0.
      8530.0      0.93688           0.
      8532.0      0.93572           0.
      8534.0      0.93515           0.
      8536.0      0.93582           0.
      8538.0      0.93496           0.
      8540.0      0.93486           0.
      8542.0      0.93409           0.
      8544.0       0.9338           0.
      8546.0       0.9339           0.
      8548.0      0.93332           0.
      8550.0      0.93246           0.
      8552.0      0.93188           0.
      8554.0      0.93102           0.
      8556.0      0.93092           0.
      8558.0      0.93054           0.
      8560.0      0.93111           0.
      8562.0       0.9313           0.
      8564.0      0.93063           0.
      8566.0      0.93082           0.
      8568.0      0.93034           0.
      8570.0      0.92881           0.
      8572.0      0.92794           0.
      8574.0      0.92698           0.
      8576.0      0.92698           0.
      8578.0      0.92688           0.
      8580.0      0.92621           0.
      8582.0      0.92573           0.
      8584.0      0.92525           0.
      8586.0      0.92419           0.
      8588.0      0.92342           0.
      8590.0      0.92285           0.
      8592.0      0.92227           0.
      8594.0      0.92266           0.
      8596.0      0.92237           0.
      8598.0       0.9215           0.
      8600.0      0.92179           0.
      8602.0       0.9216           0.
      8604.0      0.92112           0.
      8606.0      0.92064           0.
      8608.0      0.92006           0.
      8610.0       0.9192           0.
      8612.0      0.91814           0.
      8614.0      0.91776           0.
      8616.0      0.91747           0.
      8618.0      0.91689           0.
      8620.0      0.91583           0.
      8622.0      0.91593           0.
      8624.0      0.91535           0.
      8626.0      0.91449           0.
      8628.0      0.91401           0.
      8630.0      0.91334           0.
      8632.0      0.91285           0.
      8634.0      0.91276           0.
      8636.0      0.91199           0.
      8638.0      0.91199           0.
      8640.0      0.91132           0.
      8642.0      0.91064           0.
      8644.0       0.9092           0.
      8646.0      0.90824           0.
      8648.0      0.90651           0.
      8650.0      0.90632           0.
      8652.0      0.90613           0.
      8654.0      0.90642           0.
      8656.0      0.90584           0.
      8658.0      0.90507           0.
      8660.0      0.90382           0.
      8662.0      0.90315           0.
      8664.0      0.90305           0.
      8666.0      0.90209           0.
      8668.0        0.902           0.
      8670.0      0.90113           0.
      8672.0      0.90113           0.
      8674.0      0.90056           0.
      8676.0      0.89863           0.
      8678.0      0.89719           0.
      8680.0      0.89681           0.
      8682.0      0.89633           0.
      8684.0      0.89546           0.
      8686.0      0.89469           0.
      8688.0      0.89441           0.
      8690.0      0.89431           0.
      8692.0      0.89402           0.
      8694.0      0.89325           0.
      8696.0      0.89239           0.
      8698.0      0.89104           0.
      8700.0      0.88989           0.
      8702.0      0.88835           0.
      8704.0      0.88835           0.
      8706.0      0.88758           0.
      8708.0      0.88739           0.
      8710.0      0.88701           0.
      8712.0      0.88643           0.
      8714.0      0.88557           0.
      8716.0      0.88489           0.
      8718.0      0.88489           0.
      8720.0       0.8847           0.
      8722.0      0.88384           0.
      8724.0      0.88316           0.
      8726.0       0.8822           0.
      8728.0      0.88191           0.
      8730.0      0.88163           0.
      8732.0       0.8798           0.
      8734.0      0.87874           0.
      8736.0      0.87778           0.
      8738.0      0.87807           0.
      8740.0       0.8774           0.
      8742.0      0.87701           0.
      8744.0      0.87682           0.
      8746.0      0.87653           0.
      8748.0      0.87624           0.
      8750.0      0.87509           0.
      8752.0      0.87403           0.
      8754.0      0.87298           0.
      8756.0       0.8725           0.
      8758.0      0.87211           0.
      8760.0      0.87163           0.
      8762.0      0.87173           0.
      8764.0      0.87115           0.
      8766.0      0.87019           0.
      8768.0      0.86961           0.
      8770.0      0.86913           0.
      8772.0      0.86856           0.
      8774.0      0.86798           0.
      8776.0       0.8676           0.
      8778.0      0.86673           0.
      8780.0      0.86558           0.
      8782.0      0.86481           0.
      8784.0      0.86443           0.
      8786.0      0.86452           0.
      8788.0      0.86394           0.
      8790.0      0.86337           0.
      8792.0      0.86279           0.
      8794.0      0.86173           0.
      8796.0      0.86116           0.
      8798.0      0.86058           0.
      8800.0      0.86058           0.
      8802.0      0.86029           0.
      8804.0      0.85981           0.
      8806.0      0.85962           0.
      8808.0      0.85952           0.
      8810.0      0.85952           0.
      8812.0      0.85847           0.
      8814.0       0.8576           0.
      8816.0      0.85731           0.
      8818.0      0.85703           0.
      8820.0      0.85703           0.
      8822.0      0.85674           0.
      8824.0      0.85664           0.
      8826.0      0.85587           0.
      8828.0      0.85482           0.
      8830.0      0.85462           0.
      8832.0      0.85453           0.
      8834.0      0.85443           0.
      8836.0      0.85424           0.
      8838.0      0.85376           0.
      8840.0      0.85318           0.
      8842.0      0.85357           0.
      8844.0      0.85386           0.
      8846.0      0.85338           0.
      8848.0      0.85386           0.
      8850.0      0.85366           0.
      8852.0       0.8527           0.
      8854.0      0.85174           0.
      8856.0      0.85155           0.
      8858.0      0.85165           0.
      8860.0      0.85222           0.
      8862.0      0.85289           0.
      8864.0       0.8528           0.
      8866.0      0.85309           0.
      8868.0       0.8527           0.
      8870.0      0.85203           0.
      8872.0      0.85155           0.
      8874.0      0.85088           0.
      8876.0      0.85059           0.
      8878.0      0.85059           0.
      8880.0      0.85097           0.
      8882.0      0.85126           0.
      8884.0      0.85097           0.
      8886.0      0.85126           0.
      8888.0      0.85097           0.
      8890.0      0.85097           0.
      8892.0       0.8504           0.
      8894.0      0.85001           0.
      8896.0      0.85078           0.
      8898.0      0.85155           0.
      8900.0      0.85213           0.
      8902.0      0.85251           0.
      8904.0      0.85232           0.
      8906.0      0.85289           0.
      8908.0      0.85357           0.
      8910.0      0.85376           0.
      8912.0      0.85366           0.
      8914.0      0.85318           0.
      8916.0      0.85289           0.
      8918.0      0.85174           0.
      8920.0      0.85155           0.
      8922.0      0.85251           0.
      8924.0      0.85386           0.
      8926.0      0.85472           0.
      8928.0       0.8553           0.
      8930.0      0.85607           0.
      8932.0      0.85597           0.
      8934.0       0.8551           0.
      8936.0      0.85549           0.
      8938.0      0.85607           0.
      8940.0      0.85655           0.
      8942.0      0.85664           0.
      8944.0      0.85645           0.
      8946.0      0.85674           0.
      8948.0      0.85731           0.
      8950.0       0.8577           0.
      8952.0      0.85828           0.
      8954.0      0.85895           0.
      8956.0      0.85952           0.
      8958.0      0.85943           0.
      8960.0      0.85924           0.
      8962.0      0.85972           0.
      8964.0      0.86077           0.
      8966.0      0.86173           0.
      8968.0      0.86289           0.
      8970.0      0.86308           0.
      8972.0      0.86337           0.
      8974.0      0.86327           0.
      8976.0      0.86327           0.
      8978.0      0.86366           0.
      8980.0      0.86385           0.
      8982.0      0.86558           0.
      8984.0      0.86692           0.
      8986.0      0.86683           0.
      8988.0      0.86712           0.
      8990.0      0.86721           0.
      8992.0       0.8674           0.
      8994.0       0.8674           0.
      8996.0      0.86837           0.
      8998.0       0.8699           0.
      9000.0      0.87173           0.
      9002.0       0.8725           0.
      9004.0      0.87327           0.
      9006.0      0.87346           0.
      9008.0      0.87403           0.
      9010.0      0.87384           0.
      9012.0      0.87413           0.
      9014.0      0.87548           0.
      9016.0      0.87721           0.
      9018.0      0.87874           0.
      9020.0       0.8799           0.
      9022.0      0.88009           0.
      9024.0      0.88028           0.
      9026.0      0.87999           0.
      9028.0      0.88095           0.
      9030.0       0.8822           0.
      9032.0      0.88374           0.
      9034.0       0.8846           0.
      9036.0      0.88566           0.
      9038.0      0.88633           0.
      9040.0      0.88643           0.
      9042.0      0.88585           0.
      9044.0      0.88643           0.
      9046.0      0.88701           0.
      9048.0      0.88826           0.
      9050.0       0.8897           0.
      9052.0      0.89027           0.
      9054.0      0.89066           0.
      9056.0      0.89123           0.
      9058.0        0.892           0.
      9060.0       0.8922           0.
      9062.0       0.8921           0.
      9064.0      0.89364           0.
      9066.0      0.89498           0.
      9068.0      0.89556           0.
      9070.0      0.89671           0.
      9072.0      0.89786           0.
      9074.0      0.89892           0.
      9076.0      0.89969           0.
      9078.0      0.90084           0.
      9080.0      0.90132           0.
      9082.0       0.9018           0.
      9084.0      0.90161           0.
      9086.0      0.90228           0.
      9088.0      0.90267           0.
      9090.0      0.90469           0.
      9092.0      0.90574           0.
      9094.0      0.90651           0.
      9096.0      0.90853           0.
      9098.0      0.90978           0.
      9100.0      0.91016           0.
      9102.0      0.91055           0.
      9104.0      0.91064           0.
      9106.0      0.91132           0.
      9108.0      0.91247           0.
      9110.0      0.91343           0.
      9112.0      0.91401           0.
      9114.0       0.9141           0.
      9116.0      0.91468           0.
      9118.0      0.91458           0.
      9120.0       0.9166           0.
      9122.0      0.91785           0.
      9124.0      0.91968           0.
      9126.0      0.92112           0.
      9128.0       0.9215           0.
      9130.0      0.92179           0.
      9132.0      0.92179           0.
      9134.0      0.92131           0.
      9136.0      0.92208           0.
      9138.0      0.92323           0.
      9140.0      0.92381           0.
      9142.0      0.92525           0.
      9144.0      0.92698           0.
      9146.0      0.92775           0.
      9148.0      0.92727           0.
      9150.0      0.92679           0.
      9152.0      0.92717           0.
      9154.0      0.92756           0.
      9156.0      0.92813           0.
      9158.0      0.92842           0.
      9160.0      0.92929           0.
      9162.0      0.93025           0.
      9164.0      0.93092           0.
      9166.0      0.93246           0.
      9168.0      0.93438           0.
      9170.0      0.93572           0.
      9172.0      0.93669           0.
      9174.0      0.93707           0.
      9176.0      0.93601           0.
      9178.0      0.93563           0.
      9180.0      0.93534           0.
      9182.0      0.93582           0.
      9184.0      0.93688           0.
      9186.0      0.93784           0.
      9188.0      0.93803           0.
      9190.0       0.9387           0.
      9192.0      0.93899           0.
      9194.0      0.93899           0.
      9196.0      0.93861           0.
      9198.0       0.9387           0.
      9200.0      0.93957           0.
      9202.0      0.94005           0.
      9204.0       0.9412           0.
      9206.0      0.94187           0.
      9208.0      0.94197           0.
      9210.0      0.94178           0.
      9212.0      0.94159           0.
      9214.0      0.94159           0.
      9216.0      0.94235           0.
      9218.0      0.94322           0.
      9220.0      0.94408           0.
      9222.0      0.94485           0.
      9224.0      0.94456           0.
      9226.0      0.94437           0.
      9228.0      0.94389           0.
      9230.0      0.94399           0.
      9232.0      0.94399           0.
      9234.0       0.9437           0.
      9236.0      0.94399           0.
      9238.0      0.94504           0.
      9240.0       0.9461           0.
      9242.0      0.94639           0.
      9244.0      0.94658           0.
      9246.0      0.94668           0.
      9248.0      0.94677           0.
      9250.0      0.94677           0.
      9252.0      0.94639           0.
      9254.0      0.94572           0.
      9256.0      0.94553           0.
      9258.0      0.94447           0.
      9260.0      0.94389           0.
      9262.0       0.9437           0.
      9264.0      0.94476           0.
      9266.0       0.9462           0.
      9268.0      0.94725           0.
      9270.0      0.94754           0.
      9272.0      0.94774           0.
      9274.0      0.94716           0.
      9276.0      0.94716           0.
      9278.0      0.94716           0.
      9280.0      0.94677           0.
      9282.0       0.9462           0.
      9284.0       0.9461           0.
      9286.0      0.94562           0.
      9288.0      0.94533           0.
      9290.0      0.94543           0.
      9292.0      0.94553           0.
      9294.0      0.94514           0.
      9296.0       0.9438           0.
      9298.0      0.94351           0.
      9300.0      0.94312           0.
      9302.0      0.94389           0.
      9304.0       0.9437           0.
      9306.0      0.94437           0.
      9308.0      0.94533           0.
      9310.0      0.94495           0.
      9312.0      0.94399           0.
      9314.0      0.94322           0.
      9316.0      0.94293           0.
      9318.0      0.94245           0.
      9320.0      0.94216           0.
      9322.0      0.94283           0.
      9324.0      0.94341           0.
      9326.0       0.9438           0.
      9328.0      0.94418           0.
      9330.0       0.9437           0.
      9332.0      0.94389           0.
      9334.0      0.94351           0.
      9336.0      0.94322           0.
      9338.0      0.94226           0.
      9340.0      0.94216           0.
      9342.0      0.94226           0.
      9344.0      0.94274           0.
      9346.0      0.94322           0.
      9348.0      0.94408           0.
      9350.0      0.94322           0.
      9352.0      0.94332           0.
      9354.0      0.94274           0.
      9356.0      0.94207           0.
      9358.0       0.9412           0.
      9360.0      0.94111           0.
      9362.0      0.94062           0.
      9364.0      0.94014           0.
      9366.0       0.9413           0.
      9368.0      0.94216           0.
      9370.0      0.94341           0.
      9372.0      0.94437           0.
      9374.0      0.94456           0.
      9376.0      0.94456           0.
      9378.0      0.94466           0.
      9380.0      0.94274           0.
      9382.0      0.94149           0.
      9384.0      0.94139           0.
      9386.0       0.9413           0.
      9388.0      0.94187           0.
      9390.0      0.94274           0.
      9392.0      0.94332           0.
      9394.0      0.94303           0.
      9396.0      0.94312           0.
      9398.0       0.9437           0.
      9400.0       0.9438           0.
      9402.0      0.94332           0.
      9404.0       0.9437           0.
      9406.0       0.9436           0.
      9408.0      0.94293           0.
      9410.0      0.94312           0.
      9412.0      0.94293           0.
      9414.0      0.94332           0.
      9416.0      0.94312           0.
      9418.0      0.94341           0.
      9420.0      0.94418           0.
      9422.0      0.94437           0.
      9424.0      0.94447           0.
      9426.0      0.94504           0.
      9428.0      0.94495           0.
      9430.0      0.94456           0.
      9432.0      0.94389           0.
      9434.0      0.94418           0.
      9436.0      0.94418           0.
      9438.0      0.94485           0.
      9440.0      0.94524           0.
      9442.0      0.94495           0.
      9444.0      0.94466           0.
      9446.0      0.94466           0.
      9448.0      0.94399           0.
      9450.0       0.9438           0.
      9452.0      0.94332           0.
      9454.0      0.94245           0.
      9456.0      0.94264           0.
      9458.0      0.94245           0.
      9460.0       0.9412           0.
      9462.0      0.94159           0.
      9464.0      0.94082           0.
      9466.0      0.93986           0.
      9468.0       0.9389           0.
      9470.0      0.93841           0.
      9472.0      0.93765           0.
      9474.0      0.93755           0.
      9476.0      0.93745           0.
      9478.0      0.93678           0.
      9480.0       0.9362           0.
      9482.0      0.93505           0.
      9484.0      0.93409           0.
      9486.0      0.93255           0.
      9488.0      0.93121           0.
      9490.0      0.92986           0.
      9492.0      0.92919           0.
      9494.0      0.92756           0.
      9496.0      0.92669           0.
      9498.0      0.92496           0.
      9500.0      0.92294           0.
      9502.0      0.92093           0.
      9504.0      0.91881           0.
      9506.0      0.91651           0.
      9508.0      0.91324           0.
      9510.0      0.91074           0.
      9512.0      0.90834           0.
      9514.0      0.90584           0.
      9516.0      0.90373           0.
      9518.0      0.90075           0.
      9520.0      0.89796           0.
      9522.0      0.89469           0.
      9524.0      0.89171           0.
      9526.0      0.88854           0.
      9528.0      0.88528           0.
      9530.0      0.88172           0.
      9532.0      0.87692           0.
      9534.0      0.87288           0.
      9536.0      0.86837           0.
      9538.0      0.86433           0.
      9540.0       0.8601           0.
      9542.0      0.85626           0.
      9544.0      0.85078           0.
      9546.0      0.84511           0.
      9548.0      0.83935           0.
      9550.0       0.8332           0.
      9552.0      0.82743           0.
      9554.0      0.82224           0.
      9556.0      0.81744           0.
      9558.0      0.81013           0.
      9560.0      0.80341           0.
      9562.0      0.79745           0.
      9564.0      0.79149           0.
      9566.0      0.78467           0.
      9568.0      0.77766           0.
      9570.0      0.77074           0.
      9572.0      0.76305           0.
      9574.0      0.75536           0.
      9576.0      0.74768           0.
      9578.0      0.74047           0.
      9580.0      0.73278           0.
      9582.0      0.72481           0.
      9584.0      0.71731           0.
      9586.0      0.70895           0.
      9588.0       0.7005           0.
      9590.0      0.69166           0.
      9592.0       0.6831           0.
      9594.0      0.67407           0.
      9596.0      0.66446           0.
      9598.0      0.65562           0.
      9600.0      0.64717           0.
      9602.0       0.6389           0.
      9604.0      0.63006           0.
      9606.0      0.62161           0.
      9608.0      0.61305           0.
      9610.0      0.60325           0.
      9612.0      0.59316           0.
      9614.0      0.58336           0.
      9616.0      0.57404           0.
      9618.0      0.56462           0.
      9620.0      0.55559           0.
      9622.0      0.54637           0.
      9624.0      0.53666           0.
      9626.0      0.52763           0.
      9628.0      0.51831           0.
      9630.0      0.50841           0.
      9632.0      0.49823           0.
      9634.0      0.48871           0.
      9636.0       0.4793           0.
      9638.0       0.4694           0.
      9640.0      0.46056           0.
      9642.0       0.4521           0.
      9644.0      0.44384           0.
      9646.0      0.43586           0.
      9648.0      0.42731           0.
      9650.0      0.41895           0.
      9652.0      0.40982           0.
      9654.0      0.40118           0.
      9656.0       0.3933           0.
      9658.0      0.38542           0.
      9660.0      0.37754           0.
      9662.0      0.36947           0.
      9664.0      0.36187           0.
      9666.0      0.35457           0.
      9668.0      0.34698           0.
      9670.0      0.33977           0.
      9672.0      0.33228           0.
      9674.0      0.32498           0.
      9676.0      0.31758           0.
      9678.0      0.31085           0.
      9680.0      0.30393           0.
      9682.0       0.2973           0.
      9684.0      0.29077           0.
      9686.0      0.28471           0.
      9688.0      0.27789           0.
      9690.0      0.27136           0.
      9692.0      0.26521           0.
      9694.0      0.25954           0.
      9696.0      0.25368           0.
      9698.0      0.24849           0.
      9700.0      0.24301           0.
      9702.0      0.23725           0.
      9704.0      0.23148           0.
      9706.0      0.22648           0.
      9708.0       0.2213           0.
      9710.0       0.2162           0.
      9712.0      0.21178           0.
      9714.0      0.20717           0.
      9716.0      0.20256           0.
      9718.0      0.19833           0.
      9720.0      0.19362           0.
      9722.0      0.18939           0.
      9724.0      0.18536           0.
      9726.0      0.18123           0.
      9728.0       0.1769           0.
      9730.0      0.17248           0.
      9732.0      0.16854           0.
      9734.0      0.16479           0.
      9736.0      0.16105           0.
      9738.0      0.15711           0.
      9740.0      0.15403           0.
      9742.0      0.15067           0.
      9744.0      0.14711           0.
      9746.0      0.14346           0.
      9748.0         0.14           0.
      9750.0      0.13693           0.
      9752.0      0.13385           0.
      9754.0      0.13087           0.
      9756.0      0.12818           0.
      9758.0       0.1254           0.
      9760.0       0.1229           0.
      9762.0      0.11992           0.
      9764.0      0.11704           0.
      9766.0      0.11435           0.
      9768.0      0.11185           0.
      9770.0      0.10945           0.
      9772.0      0.10714           0.
      9774.0      0.10503           0.
      9776.0      0.10272           0.
      9778.0      0.10022           0.
      9780.0     0.097916           0.
      9782.0     0.095811           0.
      9784.0     0.093496           0.
      9786.0     0.091497           0.
      9788.0     0.089441           0.
      9790.0      0.08724           0.
      9792.0     0.085213           0.
      9794.0       0.0838           0.
      9796.0     0.081667           0.
      9798.0      0.07988           0.
      9800.0     0.078102           0.
      9802.0      0.07644           0.
      9804.0     0.075037           0.
      9806.0     0.073317           0.
      9808.0     0.071414           0.
      9810.0     0.070069           0.
      9812.0     0.068358           0.
      9814.0     0.066715           0.
      9816.0     0.065245           0.
      9818.0     0.064159           0.
      9820.0     0.062804           0.
      9822.0     0.061488           0.
      9824.0     0.060162           0.
      9826.0     0.059067           0.
      9828.0     0.057817           0.
      9830.0     0.056261           0.
      9832.0     0.054983           0.
      9834.0     0.054166           0.
      9836.0     0.052898           0.
      9838.0     0.051773           0.
      9840.0     0.050793           0.
      9842.0      0.04989           0.
      9844.0     0.048967           0.
      9846.0     0.047411           0.
      9848.0     0.046565           0.
      9850.0     0.045845           0.
      9852.0     0.045018           0.
      9854.0     0.044153           0.
      9856.0     0.043116           0.
      9858.0     0.042126           0.
      9860.0     0.041107           0.
      9862.0     0.040463           0.
      9864.0      0.03956           0.
      9866.0     0.038705           0.
      9868.0     0.038301           0.
      9870.0      0.03736           0.
      9872.0      0.03661           0.
      9874.0      0.03587           0.
      9876.0     0.035342           0.
      9878.0     0.034439           0.
      9880.0     0.033987           0.
      9882.0     0.033286           0.
      9884.0     0.032594           0.
      9886.0     0.031979           0.
      9888.0     0.031402           0.
      9890.0     0.030682           0.
      9892.0     0.030278           0.
      9894.0     0.029807           0.
      9896.0     0.029211           0.
      9898.0     0.028654           0.
      9930.0     0.023177           0.
      9940.0     0.021332           0.
      9950.0     0.019449           0.
      9960.0      0.01794           0.
      9970.0      0.01647           0.
      9980.0     0.015249           0.
      9990.0     0.013991           0.
     10000.0      0.01303           0.
     10010.0     0.012011           0.
     10020.0     0.011194           0.
     10030.0      0.01033           0.
     10040.0    0.0096667           0.
     10050.0      0.00897           0.
     10060.0     0.008404           0.
     10070.0    0.0077939           0.
     10080.0    0.0073124           0.
     10090.0    0.0068262           0.
     10100.0    0.0064246           0.
     10110.0    0.0060123           0.
     10120.0    0.0056635           0.
     10130.0    0.0053119           0.
     10140.0     0.005014           0.
     10150.0    0.0046988           0.
     10160.0    0.0044576           0.
     10170.0    0.0042145           0.
     10180.0    0.0039954           0.
     10190.0    0.0037677           0.
     10200.0    0.0035842           0.
     10210.0    0.0033862           0.
     10220.0    0.0032257           0.
     10230.0    0.0030509           0.
     10240.0    0.0029211           0.
     10250.0    0.0027684           0.
     10260.0    0.0026627           0.
     10270.0    0.0025156           0.
     10280.0    0.0024051           0.
     10290.0    0.0023071           0.
     10300.0    0.0022197           0.
     10310.0    0.0021034           0.
     10320.0    0.0020285           0.
     10330.0    0.0019458           0.
     10340.0    0.0018718           0.
     10350.0    0.0017873           0.
     10360.0    0.0017315           0.
     10370.0    0.0016566           0.
     10380.0    0.0016124           0.
     10390.0    0.0015422           0.
     10400.0    0.0015019           0.
     10410.0    0.0014375           0.
     10420.0     0.001402           0.
     10430.0    0.0013529           0.
     10440.0    0.0013068           0.
     10450.0    0.0012751           0.
     10460.0    0.0012367           0.
     10470.0     0.001203           0.
     10480.0    0.0011752           0.
     10490.0    0.0011396           0.
     10500.0    0.0011089           0.
     10510.0    0.0010801           0.
     10520.0     0.001057           0.
     10530.0    0.0010147           0.
     10540.0    0.0010157           0.
     10550.0    9.8684E-4           0.
     10560.0    9.6859E-4           0.
     10570.0    9.3726E-4           0.
     10580.0    9.1910E-4           0.
     10590.0    9.0632E-4           0.
     10600.0    8.8182E-4           0.
     10610.0    8.6327E-4           0.
     10620.0    8.5635E-4           0.
     10630.0    8.3771E-4           0.
     10640.0    8.2522E-4           0.
     10650.0    8.1273E-4           0.
     10660.0    7.9630E-4           0.
     10670.0    7.9668E-4           0.
     10680.0    7.8352E-4           0.
     10690.0    7.7122E-4           0.
     10700.0    7.6151E-4           0.
     10710.0    7.6094E-4           0.
     10720.0    7.4412E-4           0.
     10730.0    7.3230E-4           0.
     10740.0    7.3192E-4           0.
     10750.0    7.1808E-4           0.
     10760.0    7.1597E-4           0.
     10770.0    7.1943E-4           0.
     10780.0    7.2010E-4           0.
     10790.0    7.0011E-4           0.
     10800.0    7.1280E-4           0.
     10810.0    7.0713E-4           0.
     10820.0    6.9838E-4           0.
     10830.0    7.0770E-4           0.
     10840.0    7.0059E-4           0.
     10850.0    6.9915E-4           0.
     10860.0    7.0463E-4           0.
     10870.0    7.0501E-4           0.
     10880.0    7.0223E-4           0.
     10890.0    6.9550E-4           0.
     10900.0    6.9598E-4           0.
     10910.0    6.9598E-4           0.
     10920.0    6.9598E-4           0.
     10930.0    6.9598E-4           0.
     10940.0    6.9598E-4           0.
     10950.0    6.9598E-4           0.
     10960.0    6.9598E-4           0.
     10970.0    6.9598E-4           0.
     10980.0    6.9598E-4           0.
     10990.0    6.9598E-4           0.
     11000.0    6.9598E-4           0.
