; NICMOS NIC1 QE x F110W filter
; wavelength in microns
0.750000	0.00000
0.750500	0.00000
0.751000	1.66431e-07
0.751500	0.00000
0.752000	0.00000
0.752500	9.07847e-07
0.753000	0.00000
0.753500	0.00000
0.754000	0.00000
0.754500	0.00000
0.755000	2.63953e-11
0.755500	1.43866e-06
0.756000	8.45831e-11
0.756500	9.15519e-07
0.757000	1.23250e-06
0.757500	3.11085e-06
0.758000	4.99312e-06
0.758500	3.97330e-06
0.759000	5.13049e-06
0.759500	9.07507e-06
0.760000	1.35791e-05
0.760500	1.89626e-05
0.761000	2.69491e-05
0.761500	3.54200e-05
0.762000	4.78149e-05
0.762500	6.08641e-05
0.763000	7.95188e-05
0.763500	0.000100710
0.764000	0.000127087
0.764500	0.000150404
0.765000	0.000178396
0.765500	0.000207613
0.766000	0.000233671
0.766500	0.000259760
0.767000	0.000282493
0.767500	0.000304508
0.768000	0.000324940
0.768500	0.000341303
0.769000	0.000358951
0.769500	0.000369901
0.770000	0.000380265
0.770500	0.000395417
0.771000	0.000408679
0.771500	0.000420024
0.772000	0.000429784
0.772500	0.000446403
0.773000	0.000461194
0.773500	0.000480677
0.774000	0.000500560
0.774500	0.000531674
0.775000	0.000560752
0.775500	0.000602416
0.776000	0.000648391
0.776500	0.000701803
0.777000	0.000760775
0.777500	0.000831104
0.778000	0.000908522
0.778500	0.000993954
0.779000	0.00109111
0.779500	0.00120407
0.780000	0.00133709
0.780500	0.00148210
0.781000	0.00165301
0.781500	0.00184801
0.782000	0.00207523
0.782500	0.00233669
0.783000	0.00263151
0.783500	0.00296841
0.784000	0.00334792
0.784500	0.00377038
0.785000	0.00424440
0.785500	0.00476433
0.786000	0.00531384
0.786500	0.00592537
0.787000	0.00656612
0.787500	0.00722646
0.788000	0.00792459
0.788500	0.00859069
0.789000	0.00929724
0.789500	0.00997625
0.790000	0.0106471
0.790500	0.0113278
0.791000	0.0119867
0.791500	0.0126465
0.792000	0.0133392
0.792500	0.0140364
0.793000	0.0147872
0.793500	0.0155889
0.794000	0.0164500
0.794500	0.0174143
0.795000	0.0184721
0.795500	0.0196367
0.796000	0.0209841
0.796500	0.0224530
0.797000	0.0241468
0.797500	0.0260653
0.798000	0.0281825
0.798500	0.0306471
0.799000	0.0333151
0.799500	0.0364411
0.800000	0.0398830
0.800500	0.0435515
0.801000	0.0476153
0.801500	0.0520288
0.802000	0.0564784
0.802500	0.0612728
0.803000	0.0660963
0.803500	0.0707620
0.804000	0.0754047
0.804500	0.0796076
0.805000	0.0834694
0.805500	0.0868581
0.806000	0.0896893
0.806500	0.0920372
0.807000	0.0939834
0.807500	0.0955046
0.808000	0.0967726
0.808500	0.0978914
0.809000	0.0989278
0.809500	0.0999080
0.810000	0.100823
0.810500	0.101731
0.811000	0.102641
0.811500	0.103541
0.812000	0.104325
0.812500	0.104878
0.813000	0.105267
0.813500	0.105544
0.814000	0.105719
0.814500	0.105613
0.815000	0.105490
0.815500	0.105238
0.816000	0.104834
0.816500	0.104517
0.817000	0.104002
0.817500	0.103400
0.818000	0.102732
0.818500	0.101876
0.819000	0.101002
0.819500	0.100085
0.820000	0.0989532
0.820500	0.0977958
0.821000	0.0967257
0.821500	0.0955362
0.822000	0.0944426
0.822500	0.0934095
0.823000	0.0924571
0.823500	0.0917602
0.824000	0.0911141
0.824500	0.0906842
0.825000	0.0904483
0.825500	0.0902675
0.826000	0.0904323
0.826500	0.0907240
0.827000	0.0911445
0.827500	0.0916649
0.828000	0.0923545
0.828500	0.0929976
0.829000	0.0937028
0.829500	0.0944170
0.830000	0.0950746
0.830500	0.0956032
0.831000	0.0962678
0.831500	0.0967357
0.832000	0.0973043
0.832500	0.0978613
0.833000	0.0984413
0.833500	0.0990730
0.834000	0.0998151
0.834500	0.100542
0.835000	0.101411
0.835500	0.102190
0.836000	0.102824
0.836500	0.103385
0.837000	0.103560
0.837500	0.103428
0.838000	0.103215
0.838500	0.102536
0.839000	0.101692
0.839500	0.100743
0.840000	0.0998170
0.840500	0.0989673
0.841000	0.0983009
0.841500	0.0977539
0.842000	0.0975387
0.842500	0.0973335
0.843000	0.0972018
0.843500	0.0969945
0.844000	0.0965583
0.844500	0.0956868
0.845000	0.0943971
0.845500	0.0926995
0.846000	0.0905022
0.846500	0.0880847
0.847000	0.0854842
0.847500	0.0829247
0.848000	0.0806812
0.848500	0.0788152
0.849000	0.0775571
0.849500	0.0769985
0.850000	0.0771701
0.850500	0.0781096
0.851000	0.0800791
0.851500	0.0827163
0.852000	0.0859920
0.852500	0.0898028
0.853000	0.0937229
0.853500	0.0976645
0.854000	0.100967
0.854500	0.103117
0.855000	0.104210
0.855500	0.103829
0.856000	0.102098
0.856500	0.0994385
0.857000	0.0958961
0.857500	0.0920865
0.858000	0.0883221
0.858500	0.0849001
0.859000	0.0821268
0.859500	0.0798102
0.860000	0.0786194
0.860500	0.0779056
0.861000	0.0780390
0.861500	0.0789841
0.862000	0.0805754
0.862500	0.0825882
0.863000	0.0852693
0.863500	0.0881868
0.864000	0.0914342
0.864500	0.0946035
0.865000	0.0974993
0.865500	0.100456
0.866000	0.102865
0.866500	0.104826
0.867000	0.106487
0.867500	0.107645
0.868000	0.108662
0.868500	0.109531
0.869000	0.110132
0.869500	0.111054
0.870000	0.111937
0.870500	0.112685
0.871000	0.113394
0.871500	0.114497
0.872000	0.114718
0.872500	0.114927
0.873000	0.114389
0.873500	0.113424
0.874000	0.111251
0.874500	0.107799
0.875000	0.104806
0.875500	0.101466
0.876000	0.0978576
0.876500	0.0940852
0.877000	0.0902294
0.877500	0.0866028
0.878000	0.0835096
0.878500	0.0808729
0.879000	0.0786619
0.879500	0.0766730
0.880000	0.0749719
0.880500	0.0735842
0.881000	0.0724419
0.881500	0.0713621
0.882000	0.0703321
0.882500	0.0692550
0.883000	0.0678952
0.883500	0.0662046
0.884000	0.0644873
0.884500	0.0627327
0.885000	0.0608555
0.885500	0.0589204
0.886000	0.0570541
0.886500	0.0553220
0.887000	0.0537253
0.887500	0.0526505
0.888000	0.0518249
0.888500	0.0514265
0.889000	0.0513804
0.889500	0.0518658
0.890000	0.0528117
0.890500	0.0541660
0.891000	0.0558056
0.891500	0.0576927
0.892000	0.0598483
0.892500	0.0621144
0.893000	0.0643139
0.893500	0.0659365
0.894000	0.0670966
0.894500	0.0677532
0.895000	0.0677033
0.895500	0.0670769
0.896000	0.0657531
0.896500	0.0639756
0.897000	0.0620824
0.897500	0.0600349
0.898000	0.0582595
0.898500	0.0566566
0.899000	0.0553124
0.899500	0.0544162
0.900000	0.0541981
0.900500	0.0544752
0.901000	0.0553057
0.901500	0.0567196
0.902000	0.0588575
0.902500	0.0616377
0.903000	0.0649203
0.903500	0.0686766
0.904000	0.0728784
0.904500	0.0777711
0.905000	0.0828052
0.905500	0.0879867
0.906000	0.0929610
0.906500	0.0972330
0.907000	0.101041
0.907500	0.104253
0.908000	0.106750
0.908500	0.108702
0.909000	0.109828
0.909500	0.110362
0.910000	0.110724
0.910500	0.110922
0.911000	0.111041
0.911500	0.111365
0.912000	0.111824
0.912500	0.112508
0.913000	0.113300
0.913500	0.114361
0.914000	0.115394
0.914500	0.116621
0.915000	0.117933
0.915500	0.118970
0.916000	0.119758
0.916500	0.120573
0.917000	0.121127
0.917500	0.121442
0.918000	0.121643
0.918500	0.121768
0.919000	0.121749
0.919500	0.121761
0.920000	0.121751
0.920500	0.121706
0.921000	0.121725
0.921500	0.121679
0.922000	0.121602
0.922500	0.121503
0.923000	0.121205
0.923500	0.120632
0.924000	0.119850
0.924500	0.118928
0.925000	0.117756
0.925500	0.116405
0.926000	0.114792
0.926500	0.113209
0.927000	0.111473
0.927500	0.109682
0.928000	0.108296
0.928500	0.106915
0.929000	0.105857
0.929500	0.105024
0.930000	0.104423
0.930500	0.104174
0.931000	0.104250
0.931500	0.104633
0.932000	0.105253
0.932500	0.105984
0.933000	0.107020
0.933500	0.108088
0.934000	0.109308
0.934500	0.110513
0.935000	0.111599
0.935500	0.112614
0.936000	0.113618
0.936500	0.114486
0.937000	0.115181
0.937500	0.115867
0.938000	0.116359
0.938500	0.116855
0.939000	0.117348
0.939500	0.117683
0.940000	0.118099
0.940500	0.118524
0.941000	0.118877
0.941500	0.119240
0.942000	0.119605
0.942500	0.119928
0.943000	0.120248
0.943500	0.120467
0.944000	0.120635
0.944500	0.120861
0.945000	0.120889
0.945500	0.121011
0.946000	0.121073
0.946500	0.121159
0.947000	0.121241
0.947500	0.121377
0.948000	0.121565
0.948500	0.121844
0.949000	0.122184
0.949500	0.122602
0.950000	0.123080
0.950500	0.123436
0.951000	0.123819
0.951500	0.124104
0.952000	0.124291
0.952500	0.124337
0.953000	0.124206
0.953500	0.123880
0.954000	0.123494
0.954500	0.122931
0.955000	0.122341
0.955500	0.121684
0.956000	0.120925
0.956500	0.120315
0.957000	0.119862
0.957500	0.119559
0.958000	0.119441
0.958500	0.119527
0.959000	0.119818
0.959500	0.120411
0.960000	0.121084
0.960500	0.122058
0.961000	0.123000
0.961500	0.124180
0.962000	0.125354
0.962500	0.126439
0.963000	0.127546
0.963500	0.128358
0.964000	0.129047
0.964500	0.129590
0.965000	0.129905
0.965500	0.130061
0.966000	0.130116
0.966500	0.130038
0.967000	0.129877
0.967500	0.129805
0.968000	0.129643
0.968500	0.129578
0.969000	0.129659
0.969500	0.129827
0.970000	0.130018
0.970500	0.130327
0.971000	0.130811
0.971500	0.131272
0.972000	0.131778
0.972500	0.132229
0.973000	0.132611
0.973500	0.132886
0.974000	0.133100
0.974500	0.133211
0.975000	0.133205
0.975500	0.133075
0.976000	0.132917
0.976500	0.132721
0.977000	0.132544
0.977500	0.132439
0.978000	0.132409
0.978500	0.132529
0.979000	0.132792
0.979500	0.133042
0.980000	0.133637
0.980500	0.134100
0.981000	0.134804
0.981500	0.135486
0.982000	0.136184
0.982500	0.136701
0.983000	0.137152
0.983500	0.137414
0.984000	0.137567
0.984500	0.137433
0.985000	0.137073
0.985500	0.136636
0.986000	0.135985
0.986500	0.135227
0.987000	0.134496
0.987500	0.133657
0.988000	0.132916
0.988500	0.132404
0.989000	0.131944
0.989500	0.131759
0.990000	0.131792
0.990500	0.132001
0.991000	0.132474
0.991500	0.133146
0.992000	0.133879
0.992500	0.134729
0.993000	0.135700
0.993500	0.136626
0.994000	0.137503
0.994500	0.138275
0.995000	0.138880
0.995500	0.139281
0.996000	0.139560
0.996500	0.139653
0.997000	0.139588
0.997500	0.139385
0.998000	0.139184
0.998500	0.138885
0.999000	0.138585
0.999500	0.138392
1.00000	0.138215
1.00050	0.138259
1.00100	0.138405
1.00150	0.138663
1.00200	0.139029
1.00250	0.139466
1.00300	0.139937
1.00350	0.140502
1.00400	0.140951
1.00450	0.141364
1.00500	0.141743
1.00550	0.141950
1.00600	0.142077
1.00650	0.142057
1.00700	0.141998
1.00750	0.141739
1.00800	0.141442
1.00850	0.141142
1.00900	0.140754
1.00950	0.140454
1.01000	0.140152
1.01050	0.140031
1.01100	0.139838
1.01150	0.139814
1.01200	0.139772
1.01250	0.139857
1.01300	0.139894
1.01350	0.139908
1.01400	0.139930
1.01450	0.139862
1.01500	0.139610
1.01550	0.139281
1.01600	0.138703
1.01650	0.138012
1.01700	0.137235
1.01750	0.136377
1.01800	0.135369
1.01850	0.134349
1.01900	0.133177
1.01950	0.132112
1.02000	0.131166
1.02050	0.130289
1.02100	0.129550
1.02150	0.129001
1.02200	0.128528
1.02250	0.128269
1.02300	0.128191
1.02350	0.128277
1.02400	0.128572
1.02450	0.128847
1.02500	0.129345
1.02550	0.129863
1.02600	0.130428
1.02650	0.130928
1.02700	0.131531
1.02750	0.131870
1.02800	0.132233
1.02850	0.132535
1.02900	0.132720
1.02950	0.132859
1.03000	0.132900
1.03050	0.132921
1.03100	0.132924
1.03150	0.132870
1.03200	0.132921
1.03250	0.133019
1.03300	0.133151
1.03350	0.133429
1.03400	0.133780
1.03450	0.134195
1.03500	0.134814
1.03550	0.135417
1.03600	0.136045
1.03650	0.136857
1.03700	0.137556
1.03750	0.138327
1.03800	0.139114
1.03850	0.139868
1.03900	0.140556
1.03950	0.141146
1.04000	0.141637
1.04050	0.142270
1.04100	0.142710
1.04150	0.143210
1.04200	0.143811
1.04250	0.144329
1.04300	0.144940
1.04350	0.145585
1.04400	0.146318
1.04450	0.147167
1.04500	0.148003
1.04550	0.148777
1.04600	0.149563
1.04650	0.150291
1.04700	0.150799
1.04750	0.151185
1.04800	0.151284
1.04850	0.151014
1.04900	0.150438
1.04950	0.149499
1.05000	0.148238
1.05050	0.146500
1.05100	0.144336
1.05150	0.142014
1.05200	0.139656
1.05250	0.137131
1.05300	0.134637
1.05350	0.132165
1.05400	0.129642
1.05450	0.127300
1.05500	0.125494
1.05550	0.123818
1.05600	0.122481
1.05650	0.121447
1.05700	0.120748
1.05750	0.120445
1.05800	0.120515
1.05850	0.120845
1.05900	0.121553
1.05950	0.122545
1.06000	0.123858
1.06050	0.125406
1.06100	0.127142
1.06150	0.129020
1.06200	0.130868
1.06250	0.133029
1.06300	0.134992
1.06350	0.137226
1.06400	0.139037
1.06450	0.140877
1.06500	0.142514
1.06550	0.143963
1.06600	0.145312
1.06650	0.146412
1.06700	0.147326
1.06750	0.148022
1.06800	0.148435
1.06850	0.148770
1.06900	0.148718
1.06950	0.148573
1.07000	0.148069
1.07050	0.147563
1.07100	0.146729
1.07150	0.145590
1.07200	0.144230
1.07250	0.142626
1.07300	0.140689
1.07350	0.138601
1.07400	0.136442
1.07450	0.134046
1.07500	0.131604
1.07550	0.129043
1.07600	0.126358
1.07650	0.123797
1.07700	0.121453
1.07750	0.119252
1.07800	0.117153
1.07850	0.115290
1.07900	0.113618
1.07950	0.112249
1.08000	0.111341
1.08050	0.110709
1.08100	0.110428
1.08150	0.110486
1.08200	0.110926
1.08250	0.111803
1.08300	0.112995
1.08350	0.114434
1.08400	0.116361
1.08450	0.118583
1.08500	0.121042
1.08550	0.123931
1.08600	0.127079
1.08650	0.130137
1.08700	0.133429
1.08750	0.136881
1.08800	0.140159
1.08850	0.143590
1.08900	0.147114
1.08950	0.150133
1.09000	0.152978
1.09050	0.155587
1.09100	0.157988
1.09150	0.160106
1.09200	0.162028
1.09250	0.163595
1.09300	0.164842
1.09350	0.165946
1.09400	0.166714
1.09450	0.167437
1.09500	0.167874
1.09550	0.168130
1.09600	0.168281
1.09650	0.168180
1.09700	0.167947
1.09750	0.167549
1.09800	0.166830
1.09850	0.166025
1.09900	0.165078
1.09950	0.163812
1.10000	0.162490
1.10050	0.160682
1.10100	0.158771
1.10150	0.156676
1.10200	0.154629
1.10250	0.152673
1.10300	0.150658
1.10350	0.148680
1.10400	0.146785
1.10450	0.145104
1.10500	0.143635
1.10550	0.142516
1.10600	0.141685
1.10650	0.140952
1.10700	0.140695
1.10750	0.140781
1.10800	0.141149
1.10850	0.141850
1.10900	0.142833
1.10950	0.144096
1.11000	0.145693
1.11050	0.147478
1.11100	0.149487
1.11150	0.151559
1.11200	0.153599
1.11250	0.155696
1.11300	0.157686
1.11350	0.159570
1.11400	0.161357
1.11450	0.162728
1.11500	0.163812
1.11550	0.164557
1.11600	0.165054
1.11650	0.165178
1.11700	0.165014
1.11750	0.164598
1.11800	0.163933
1.11850	0.163227
1.11900	0.162407
1.11950	0.161505
1.12000	0.160570
1.12050	0.159642
1.12100	0.158913
1.12150	0.158302
1.12200	0.157858
1.12250	0.157510
1.12300	0.157357
1.12350	0.157355
1.12400	0.157494
1.12450	0.157711
1.12500	0.158048
1.12550	0.158401
1.12600	0.158830
1.12650	0.159140
1.12700	0.159537
1.12750	0.159764
1.12800	0.159926
1.12850	0.159941
1.12900	0.159918
1.12950	0.159687
1.13000	0.159383
1.13050	0.159010
1.13100	0.158547
1.13150	0.158078
1.13200	0.157570
1.13250	0.157068
1.13300	0.156564
1.13350	0.156212
1.13400	0.155896
1.13450	0.155767
1.13500	0.155698
1.13550	0.155785
1.13600	0.156022
1.13650	0.156384
1.13700	0.156824
1.13750	0.157306
1.13800	0.157904
1.13850	0.158529
1.13900	0.159212
1.13950	0.159814
1.14000	0.160309
1.14050	0.160704
1.14100	0.160930
1.14150	0.161026
1.14200	0.160922
1.14250	0.160589
1.14300	0.160173
1.14350	0.159528
1.14400	0.158777
1.14450	0.157868
1.14500	0.156847
1.14550	0.155756
1.14600	0.154639
1.14650	0.153614
1.14700	0.152658
1.14750	0.151810
1.14800	0.151091
1.14850	0.150513
1.14900	0.150104
1.14950	0.149914
1.15000	0.149884
1.15050	0.150153
1.15100	0.150603
1.15150	0.151199
1.15200	0.152051
1.15250	0.152992
1.15300	0.154167
1.15350	0.155293
1.15400	0.156616
1.15450	0.157875
1.15500	0.159284
1.15550	0.160592
1.15600	0.161695
1.15650	0.162776
1.15700	0.163737
1.15750	0.164538
1.15800	0.165127
1.15850	0.165601
1.15900	0.165822
1.15950	0.165920
1.16000	0.165850
1.16050	0.165660
1.16100	0.165378
1.16150	0.164990
1.16200	0.164563
1.16250	0.164162
1.16300	0.163711
1.16350	0.163274
1.16400	0.162922
1.16450	0.162637
1.16500	0.162335
1.16550	0.162206
1.16600	0.162074
1.16650	0.162047
1.16700	0.162058
1.16750	0.162110
1.16800	0.162269
1.16850	0.162347
1.16900	0.162466
1.16950	0.162590
1.17000	0.162638
1.17050	0.162655
1.17100	0.162725
1.17150	0.162628
1.17200	0.162482
1.17250	0.162344
1.17300	0.162191
1.17350	0.161891
1.17400	0.161664
1.17450	0.161452
1.17500	0.161178
1.17550	0.160982
1.17600	0.160796
1.17650	0.160709
1.17700	0.160641
1.17750	0.160685
1.17800	0.160826
1.17850	0.161004
1.17900	0.161255
1.17950	0.161665
1.18000	0.162056
1.18050	0.162531
1.18100	0.163055
1.18150	0.163495
1.18200	0.163963
1.18250	0.164366
1.18300	0.164706
1.18350	0.164920
1.18400	0.165040
1.18450	0.165008
1.18500	0.164736
1.18550	0.164353
1.18600	0.163753
1.18650	0.162953
1.18700	0.162076
1.18750	0.161051
1.18800	0.159903
1.18850	0.158699
1.18900	0.157372
1.18950	0.156009
1.19000	0.154638
1.19050	0.153316
1.19100	0.152167
1.19150	0.151123
1.19200	0.150230
1.19250	0.149432
1.19300	0.148750
1.19350	0.148293
1.19400	0.148138
1.19450	0.148020
1.19500	0.148218
1.19550	0.148660
1.19600	0.149254
1.19650	0.150115
1.19700	0.151120
1.19750	0.152123
1.19800	0.153436
1.19850	0.154746
1.19900	0.156325
1.19950	0.157996
1.20000	0.159492
1.20050	0.160960
1.20100	0.162429
1.20150	0.163908
1.20200	0.165249
1.20250	0.166588
1.20300	0.167653
1.20350	0.168593
1.20400	0.169245
1.20450	0.169828
1.20500	0.170222
1.20550	0.170516
1.20600	0.170565
1.20650	0.170565
1.20700	0.170360
1.20750	0.170230
1.20800	0.169895
1.20850	0.169549
1.20900	0.169226
1.20950	0.168940
1.21000	0.168593
1.21050	0.168450
1.21100	0.168200
1.21150	0.168052
1.21200	0.167957
1.21250	0.167878
1.21300	0.167959
1.21350	0.168065
1.21400	0.168167
1.21450	0.168325
1.21500	0.168574
1.21550	0.168705
1.21600	0.168984
1.21650	0.169041
1.21700	0.169248
1.21750	0.169380
1.21800	0.169378
1.21850	0.169584
1.21900	0.169552
1.21950	0.169617
1.22000	0.169429
1.22050	0.169439
1.22100	0.169326
1.22150	0.169224
1.22200	0.169146
1.22250	0.169065
1.22300	0.168889
1.22350	0.168938
1.22400	0.168908
1.22450	0.168867
1.22500	0.168951
1.22550	0.169065
1.22600	0.169120
1.22650	0.169359
1.22700	0.169346
1.22750	0.169567
1.22800	0.169742
1.22850	0.169874
1.22900	0.170050
1.22950	0.170120
1.23000	0.170090
1.23050	0.170073
1.23100	0.169858
1.23150	0.169573
1.23200	0.169238
1.23250	0.168700
1.23300	0.168053
1.23350	0.167348
1.23400	0.166310
1.23450	0.165313
1.23500	0.164333
1.23550	0.163099
1.23600	0.161927
1.23650	0.160595
1.23700	0.159293
1.23750	0.157960
1.23800	0.156772
1.23850	0.155603
1.23900	0.154470
1.23950	0.153421
1.24000	0.152507
1.24050	0.151668
1.24100	0.151012
1.24150	0.150464
1.24200	0.150140
1.24250	0.149914
1.24300	0.149885
1.24350	0.150016
1.24400	0.150240
1.24450	0.150707
1.24500	0.151220
1.24550	0.151898
1.24600	0.152714
1.24650	0.153662
1.24700	0.154738
1.24750	0.155739
1.24800	0.156839
1.24850	0.157979
1.24900	0.159177
1.24950	0.160469
1.25000	0.161582
1.25050	0.162789
1.25100	0.163787
1.25150	0.164832
1.25200	0.165773
1.25250	0.166653
1.25300	0.167465
1.25350	0.168201
1.25400	0.168757
1.25450	0.169271
1.25500	0.169750
1.25550	0.170091
1.25600	0.170428
1.25650	0.170667
1.25700	0.170895
1.25750	0.171118
1.25800	0.171239
1.25850	0.171471
1.25900	0.171613
1.25950	0.171748
1.26000	0.171949
1.26050	0.172071
1.26100	0.172308
1.26150	0.172514
1.26200	0.172721
1.26250	0.172930
1.26300	0.173190
1.26350	0.173419
1.26400	0.173637
1.26450	0.173907
1.26500	0.174053
1.26550	0.174283
1.26600	0.174480
1.26650	0.174623
1.26700	0.174808
1.26750	0.174902
1.26800	0.174983
1.26850	0.175094
1.26900	0.175180
1.26950	0.175241
1.27000	0.175271
1.27050	0.175438
1.27100	0.175362
1.27150	0.175553
1.27200	0.175603
1.27250	0.175743
1.27300	0.175802
1.27350	0.175912
1.27400	0.176002
1.27450	0.176234
1.27500	0.176338
1.27550	0.176454
1.27600	0.176547
1.27650	0.176558
1.27700	0.176450
1.27750	0.176389
1.27800	0.176023
1.27850	0.175738
1.27900	0.175280
1.27950	0.174450
1.28000	0.173591
1.28050	0.172749
1.28100	0.171275
1.28150	0.169840
1.28200	0.168283
1.28250	0.166697
1.28300	0.164680
1.28350	0.162667
1.28400	0.160552
1.28450	0.158253
1.28500	0.156031
1.28550	0.153971
1.28600	0.151706
1.28650	0.149468
1.28700	0.147342
1.28750	0.145306
1.28800	0.143428
1.28850	0.141690
1.28900	0.140260
1.28950	0.138963
1.29000	0.137757
1.29050	0.136874
1.29100	0.136127
1.29150	0.135718
1.29200	0.135508
1.29250	0.135565
1.29300	0.135866
1.29350	0.136323
1.29400	0.137146
1.29450	0.138195
1.29500	0.139386
1.29550	0.140841
1.29600	0.142335
1.29650	0.144073
1.29700	0.146105
1.29750	0.148174
1.29800	0.150169
1.29850	0.152189
1.29900	0.154153
1.29950	0.156038
1.30000	0.157870
1.30050	0.159743
1.30100	0.161273
1.30150	0.162598
1.30200	0.163570
1.30250	0.164278
1.30300	0.164779
1.30350	0.164858
1.30400	0.164698
1.30450	0.164268
1.30500	0.163514
1.30550	0.162720
1.30600	0.161600
1.30650	0.160324
1.30700	0.159009
1.30750	0.157747
1.30800	0.156561
1.30850	0.155329
1.30900	0.154302
1.30950	0.153259
1.31000	0.152489
1.31050	0.151911
1.31100	0.151618
1.31150	0.151502
1.31200	0.151623
1.31250	0.151984
1.31300	0.152678
1.31350	0.153571
1.31400	0.154688
1.31450	0.155959
1.31500	0.157503
1.31550	0.159187
1.31600	0.161048
1.31650	0.162863
1.31700	0.164743
1.31750	0.166466
1.31800	0.168173
1.31850	0.169735
1.31900	0.171052
1.31950	0.172044
1.32000	0.172666
1.32050	0.172834
1.32100	0.172624
1.32150	0.171978
1.32200	0.170772
1.32250	0.169098
1.32300	0.167163
1.32350	0.164816
1.32400	0.162270
1.32450	0.159519
1.32500	0.156507
1.32550	0.153301
1.32600	0.149985
1.32650	0.147049
1.32700	0.144152
1.32750	0.141306
1.32800	0.138730
1.32850	0.136324
1.32900	0.134104
1.32950	0.132348
1.33000	0.130898
1.33050	0.129758
1.33100	0.128859
1.33150	0.128392
1.33200	0.128284
1.33250	0.128606
1.33300	0.129242
1.33350	0.130312
1.33400	0.131697
1.33450	0.133549
1.33500	0.135908
1.33550	0.138509
1.33600	0.141364
1.33650	0.144572
1.33700	0.148139
1.33750	0.151809
1.33800	0.156085
1.33850	0.160482
1.33900	0.164399
1.33950	0.168519
1.34000	0.172494
1.34050	0.176080
1.34100	0.179496
1.34150	0.182372
1.34200	0.184333
1.34250	0.185653
1.34300	0.186230
1.34350	0.186012
1.34400	0.184964
1.34450	0.182969
1.34500	0.180322
1.34550	0.177297
1.34600	0.173653
1.34650	0.169625
1.34700	0.165226
1.34750	0.160254
1.34800	0.155493
1.34850	0.151042
1.34900	0.146652
1.34950	0.142531
1.35000	0.138670
1.35050	0.134697
1.35100	0.131108
1.35150	0.128002
1.35200	0.125387
1.35250	0.122894
1.35300	0.120861
1.35350	0.118989
1.35400	0.117434
1.35450	0.116174
1.35500	0.115281
1.35550	0.114701
1.35600	0.114379
1.35650	0.114358
1.35700	0.114578
1.35750	0.115061
1.35800	0.115726
1.35850	0.116598
1.35900	0.117611
1.35950	0.118796
1.36000	0.120083
1.36050	0.121660
1.36100	0.123206
1.36150	0.124869
1.36200	0.126613
1.36250	0.128290
1.36300	0.129872
1.36350	0.131475
1.36400	0.133039
1.36450	0.134439
1.36500	0.135848
1.36550	0.137107
1.36600	0.138178
1.36650	0.139200
1.36700	0.140114
1.36750	0.140878
1.36800	0.141573
1.36850	0.142142
1.36900	0.142599
1.36950	0.142979
1.37000	0.143264
1.37050	0.143498
1.37100	0.143727
1.37150	0.143961
1.37200	0.144285
1.37250	0.144571
1.37300	0.144934
1.37350	0.145386
1.37400	0.145920
1.37450	0.146618
1.37500	0.147321
1.37550	0.148189
1.37600	0.149178
1.37650	0.150332
1.37700	0.151556
1.37750	0.152783
1.37800	0.154137
1.37850	0.155557
1.37900	0.157108
1.37950	0.158751
1.38000	0.160398
1.38050	0.161802
1.38100	0.163278
1.38150	0.164537
1.38200	0.165839
1.38250	0.166880
1.38300	0.167642
1.38350	0.168214
1.38400	0.168505
1.38450	0.168429
1.38500	0.168186
1.38550	0.167515
1.38600	0.166585
1.38650	0.165365
1.38700	0.163684
1.38750	0.161854
1.38800	0.159515
1.38850	0.156697
1.38900	0.153557
1.38950	0.150359
1.39000	0.147447
1.39050	0.143864
1.39100	0.140047
1.39150	0.135521
1.39200	0.130821
1.39250	0.126030
1.39300	0.121453
1.39350	0.116809
1.39400	0.112278
1.39450	0.107513
1.39500	0.102145
1.39550	0.0964691
1.39600	0.0912593
1.39650	0.0860324
1.39700	0.0815497
1.39750	0.0771949
1.39800	0.0727042
1.39850	0.0683617
1.39900	0.0642584
1.39950	0.0603181
1.40000	0.0561632
1.40050	0.0522411
1.40100	0.0485847
1.40150	0.0449240
1.40200	0.0419805
1.40250	0.0394310
1.40300	0.0370465
1.40350	0.0345096
1.40400	0.0321606
1.40450	0.0298840
1.40500	0.0277372
1.40550	0.0259082
1.40600	0.0242245
1.40650	0.0227047
1.40700	0.0212891
1.40750	0.0199196
1.40800	0.0186233
1.40850	0.0174674
1.40900	0.0164513
1.40950	0.0154341
1.41000	0.0145215
1.41050	0.0136123
1.41100	0.0128479
1.41150	0.0121936
1.41200	0.0115391
1.41250	0.0109215
1.41300	0.0103867
1.41350	0.00981803
1.41400	0.00926280
1.41450	0.00878227
1.41500	0.00838608
1.41550	0.00796538
1.41600	0.00758199
1.41650	0.00727426
1.41700	0.00689955
1.41750	0.00658053
1.41800	0.00629230
1.41850	0.00600449
1.41900	0.00574482
1.41950	0.00548823
1.42000	0.00524345
1.42050	0.00501219
1.42100	0.00478849
1.42150	0.00458290
1.42200	0.00442558
1.42250	0.00422602
1.42300	0.00407510
1.42350	0.00387475
1.42400	0.00371850
1.42450	0.00357172
1.42500	0.00344143
1.42550	0.00330104
1.42600	0.00318636
1.42650	0.00305008
1.42700	0.00292032
1.42750	0.00283006
1.42800	0.00270393
1.42850	0.00261912
1.42900	0.00247298
1.42950	0.00240756
1.43000	0.00233473
1.43050	0.00224414
1.43100	0.00215137
1.43150	0.00206583
1.43200	0.00202335
1.43250	0.00194800
1.43300	0.00185800
1.43350	0.00178024
1.43400	0.00171498
1.43450	0.00167494
1.43500	0.00161121
1.43550	0.00155888
1.43600	0.00147059
1.43650	0.00141331
1.43700	0.00139264
1.43750	0.00131520
1.43800	0.00130753
1.43850	0.00123885
1.43900	0.00120228
1.43950	0.00116167
1.44000	0.00110975
1.44050	0.00107201
1.44100	0.00102433
1.44150	0.000993106
1.44200	0.000968521
1.44250	0.000944767
1.44300	0.000875185
1.44350	0.000867975
1.44400	0.000826399
1.44450	0.000801733
1.44500	0.000762025
1.44550	0.000722873
1.44600	0.000709265
1.44650	0.000688212
1.44700	0.000666308
1.44750	0.000624045
1.44800	0.000605505
1.44850	0.000585480
1.44900	0.000524994
1.44950	0.000527371
1.45000	0.000529467
1.45050	0.000496556
1.45100	0.000485490
1.45150	0.000449549
1.45200	0.000454177
1.45250	0.000426055
1.45300	0.000383910
1.45350	0.000404939
1.45400	0.000379883
1.45450	0.000370515
1.45500	0.000350916
1.45550	0.000331815
1.45600	0.000321729
1.45650	0.000314178
1.45700	0.000281671
1.45750	0.000289795
1.45800	0.000302486
1.45850	0.000284803
1.45900	0.000250710
1.45950	0.000272435
1.46000	0.000262686
1.46050	0.000228056
1.46100	0.000218840
1.46150	0.000256346
1.46200	0.000219029
1.46250	0.000228891
1.46300	0.000205819
1.46350	0.000191896
1.46400	0.000204668
1.46450	0.000161396
1.46500	0.000174333
1.46550	0.000171098
1.46600	0.000139050
1.46650	0.000162081
1.46700	0.000139013
1.46750	0.000126494
1.46800	0.000112316
1.46850	0.000116282
1.46900	9.34151e-05
1.46950	8.97945e-05
1.47000	9.18879e-05
1.47050	8.30482e-05
1.47100	7.20619e-05
1.47150	6.10128e-05
1.47200	6.86806e-05
1.47250	6.47135e-05
1.47300	3.16964e-05
1.47350	5.91008e-05
1.47400	5.35853e-05
1.47450	5.94935e-05
1.47500	5.77268e-05
1.47550	5.04183e-05
1.47600	1.30400e-05
1.47650	3.94382e-05
1.47700	2.82405e-05
1.47750	0.00000
1.47800	0.00000
1.47850	2.07984e-05
1.47900	5.10363e-05
1.47950	3.77743e-06
1.48000	1.91446e-06
1.48050	2.66230e-05
1.48100	5.70154e-06
1.48150	1.71401e-05
1.48200	1.52316e-05
1.48250	2.09783e-05
1.48300	1.52510e-05
1.48350	4.01115e-05
1.48400	9.54701e-06
1.48450	2.49317e-05
1.48500	1.34618e-05
1.48550	5.78357e-06
1.48600	1.54573e-05
1.48650	3.85316e-05
1.48700	1.74579e-05
1.48750	1.94264e-05
1.48800	3.10919e-05
1.48850	1.36206e-05
1.48900	0.00000
1.48950	0.00000
1.49000	2.93309e-05
1.49050	1.54208e-05
1.49100	0.00000
1.49150	0.00000
1.49200	4.13408e-05
1.49250	0.00000
1.49300	3.71760e-05
1.49350	0.00000
1.49400	1.74621e-05
1.49450	1.99978e-06
1.49500	2.18862e-05
1.49550	0.00000
1.49600	1.79816e-05
1.49650	1.97971e-06
1.49700	0.00000
1.49750	4.03964e-06
1.49800	4.01704e-06
1.49850	2.01480e-05
1.49900	4.44184e-05
1.49950	1.98712e-06
1.50000	3.39781e-06
