#CH4_L Original Data   according to NDC
#300K, 0 degree incidence
#
#CH4_L   
# Wavelength(micron)   Transmission
0.400000   0
0.401000   0
0.402000   0
0.403000   0
0.404000   0
0.405000   0
0.406000   0
0.407000   0
0.408000   0
0.409000   0
0.410000   0
0.411000   0
0.412000   0
0.413000   0
0.414000   0
0.415000   0
0.416000   0
0.417000   0
0.418000   0
0.419000   0
0.420000   0
0.421000   0
0.422000   0
0.423000   0
0.424000   0
0.425000   0
0.426000   0
0.427000   0
0.428000   0
0.429000   0
0.430000   0
0.431000   0
0.432000   0
0.433000   0
0.434000   0
0.435000   0
0.436000   0
0.437000   0
0.438000   0
0.439000   0
0.440000   0
0.441000   0
0.442000   0
0.443000   0
0.444000   0
0.445000   0
0.446000   0
0.447000   0
0.448000   0
0.449000   0
0.450000   0
0.451000   0
0.452000   0
0.453000   0
0.454000   0
0.455000   0
0.456000   0
0.457000   0
0.458000   0
0.459000   0
0.460000   0
0.461000   0
0.462000   0
0.463000   0
0.464000   0
0.465000   0
0.466000   0
0.467000   0
0.468000   0
0.469000   0
0.470000   0
0.471000   0
0.472000   0
0.473000   0
0.474000   0
0.475000   0
0.476000   0
0.477000   0
0.478000   0
0.479000   0
0.480000   0
0.481000   0
0.482000   0
0.483000   0
0.484000   0
0.485000   0
0.486000   0
0.487000   0
0.488000   0
0.489000   0
0.490000   0
0.491000   0
0.492000   0
0.493000   0
0.494000   0
0.495000   0
0.496000   0
0.497000   0
0.498000   0
0.499000   0
0.500000   0
0.501000   0
0.502000   0
0.503000   0
0.504000   0
0.505000   0
0.506000   0
0.507000   0
0.508000   0
0.509000   0
0.510000   0
0.511000   0
0.512000   0
0.513000   0
0.514000   0
0.515000   0
0.516000   0
0.517000   0
0.518000   0
0.519000   0
0.520000   0
0.521000   0
0.522000   0
0.523000   0
0.524000   0
0.525000   0
0.526000   0
0.527000   0
0.528000   0
0.529000   0
0.530000   0
0.531000   0
0.532000   0
0.533000   0
0.534000   0
0.535000   0
0.536000   0
0.537000   0
0.538000   0
0.539000   0
0.540000   0
0.541000   0
0.542000   0
0.543000   0
0.544000   0
0.545000   0
0.546000   0
0.547000   0
0.548000   0
0.549000   0
0.550000   0
0.551000   0
0.552000   0
0.553000   0
0.554000   0
0.555000   0
0.556000   0
0.557000   0
0.558000   0
0.559000   0
0.560000   0
0.561000   0
0.562000   0
0.563000   0
0.564000   0
0.565000   0
0.566000   0
0.567000   0
0.568000   0
0.569000   0
0.570000   0
0.571000   0
0.572000   0
0.573000   0
0.574000   0
0.575000   0
0.576000   0
0.577000   0
0.578000   0
0.579000   0
0.580000   0
0.581000   0
0.582000   0
0.583000   0
0.584000   0
0.585000   0
0.586000   0
0.587000   0
0.588000   0
0.589000   0
0.590000   0
0.591000   0
0.592000   0
0.593000   0
0.594000   0
0.595000   0
0.596000   0
0.597000   0
0.598000   0
0.599000   0
0.600000   0
0.601000   0
0.602000   0
0.603000   0
0.604000   0
0.605000   0
0.606000   0
0.607000   0
0.608000   0
0.609000   0
0.610000   0
0.611000   0
0.612000   0
0.613000   0
0.614000   0
0.615000   0
0.616000   0
0.617000   0
0.618000   0
0.619000   0
0.620000   0
0.621000   0
0.622000   0
0.623000   0
0.624000   0
0.625000   0
0.626000   0
0.627000   0
0.628000   0
0.629000   0
0.630000   0
0.631000   0
0.632000   0
0.633000   0
0.634000   0
0.635000   0
0.636000   0
0.637000   0
0.638000   0
0.639000   0
0.640000   0
0.641000   0
0.642000   0
0.643000   0
0.644000   0
0.645000   0
0.646000   0
0.647000   0
0.648000   0
0.649000   0
0.650000   0
0.651000   0
0.652000   0
0.653000   0
0.654000   0
0.655000   0
0.656000   0
0.657000   0
0.658000   0
0.659000   0
0.660000   0
0.661000   0
0.662000   0
0.663000   0
0.664000   0
0.665000   0
0.666000   0
0.667000   0
0.668000   0
0.669000   0
0.670000   0
0.671000   0
0.672000   0
0.673000   0
0.674000   0
0.675000   0
0.676000   0
0.677000   0
0.678000   0
0.679000   0
0.680000   0
0.681000   0
0.682000   0
0.683000   0
0.684000   0
0.685000   0
0.686000   0
0.687000   0
0.688000   0
0.689000   0
0.690000   0
0.691000   0
0.692000   0
0.693000   0
0.694000   0
0.695000   0
0.696000   0
0.697000   0
0.698000   0
0.699000   0
0.700000   0
0.701000   0
0.702000   0
0.703000   0
0.704000   0
0.705000   0
0.706000   0
0.707000   0
0.708000   0
0.709000   0
0.710000   0
0.711000   0
0.712000   0
0.713000   0
0.714000   0
0.715000   0
0.716000   0
0.717000   0
0.718000   0
0.719000   0
0.720000   0
0.721000   0
0.722000   0
0.723000   0
0.724000   0
0.725000   0
0.726000   0
0.727000   0
0.728000   0
0.729000   0
0.730000   0
0.731000   0
0.732000   0
0.733000   0
0.734000   0
0.735000   0
0.736000   0
0.737000   0
0.738000   0
0.739000   0
0.740000   0
0.741000   0
0.742000   0
0.743000   0
0.744000   0
0.745000   0
0.746000   0
0.747000   0
0.748000   0
0.749000   0
0.750000   0
0.751000   0
0.752000   0
0.753000   0
0.754000   0
0.755000   0
0.756000   0
0.757000   0
0.758000   0
0.759000   0
0.760000   0
0.761000   0
0.762000   0
0.763000   0
0.764000   0
0.765000   0
0.766000   0
0.767000   0
0.768000   0
0.769000   0
0.770000   0
0.771000   0
0.772000   0
0.773000   0
0.774000   0
0.775000   0.00005
0.776000   0
0.777000   0
0.778000   0
0.779000   0
0.780000   0
0.781000   0
0.782000   0
0.783000   0
0.784000   0
0.785000   0
0.786000   0
0.787000   0
0.788000   0
0.789000   0
0.790000   0
0.791000   0
0.792000   0
0.793000   0
0.794000   0
0.795000   0
0.796000   0
0.797000   0
0.798000   0
0.799000   0
0.800000   0
0.801000   0
0.802000   0
0.803000   0
0.804000   0.00005
0.805000   0.00005
0.806000   0.0001
0.807000   0.0001
0.808000   0.0001
0.809000   0.0001
0.810000   0.00015
0.811000   0.0002
0.812000   0.0002
0.813000   0.00025
0.814000   0.00025
0.815000   0.0002
0.816000   0.0002
0.817000   0.00015
0.818000   0.0002
0.819000   0.00015
0.820000   0.00015
0.821000   0.00015
0.822000   0.00015
0.823000   0.0002
0.824000   0.00025
0.825000   0.0003
0.826000   0.0003
0.827000   0.00035
0.828000   0.00035
0.829000   0.00035
0.830000   0.00035
0.831000   0.00035
0.832000   0.0003
0.833000   0.0003
0.834000   0.00025
0.835000   0.00025
0.836000   0.00025
0.837000   0.0002
0.838000   0.00025
0.839000   0.00025
0.840000   0.0003
0.841000   0.00035
0.842000   0.0004
0.843000   0.0005
0.844000   0.00055
0.845000   0.0006
0.846000   0.0006
0.847000   0.0006
0.848000   0.0006
0.849000   0.00055
0.850000   0.00055
0.851000   0.0006
0.852000   0.0007
0.853000   0.0008
0.854000   0.00095
0.855000   0.00125
0.856000   0.0016
0.857000   0.002
0.858000   0.0023
0.859000   0.00265
0.860000   0.00325
0.861000   0.00225
0.862000   0.00335
0.863000   0.0026
0.864000   0.00355
0.865000   0.0033
0.866000   0.00345
0.867000   0.00235
0.868000   0.00175
0.869000   0.0016
0.870000   0.00175
0.871000   0.00205
0.872000   0.0013
0.873000   0.00165
0.874000   0.00075
0.875000   0.00085
0.876000   0.0008
0.877000   0.00075
0.878000   0.0012
0.879000   0.0007
0.880000   0.00165
0.881000   0.00065
0.882000   0.00105
0.883000   0.0009
0.884000   0.00105
0.885000   0.00095
0.886000   0.0011
0.887000   0.00085
0.888000   0.001
0.889000   0.00135
0.890000   0.0008
0.891000   0.00125
0.892000   0.0005
0.893000   0.0009
0.894000   0.0011
0.895000   0.00115
0.896000   0.00115
0.897000   0.00105
0.898000   0.0012
0.899000   0.00055
0.900000   0.0016
0.901000   0.00085
0.902000   0.00085
0.903000   0.00095
0.904000   0.0013
0.905000   0.00115
0.906000   0.001
0.907000   0.001
0.908000   0.0008
0.909000   0.0013
0.910000   0.00075
0.911000   0.0011
0.912000   0.001
0.913000   0.0015
0.914000   0.0009
0.915000   0.00125
0.916000   0.00125
0.917000   0.00065
0.918000   0.0013
0.919000   0.001
0.920000   0.00195
0.921000   0.0009
0.922000   0.00115
0.923000   0.0008
0.924000   0.0007
0.925000   0.0008
0.926000   0.0008
0.927000   0.00125
0.928000   0.0007
0.929000   0.00115
0.930000   0.00075
0.931000   0.00105
0.932000   0.0005
0.933000   0.00105
0.934000   0.00095
0.935000   0.001
0.936000   0.00145
0.937000   0.00135
0.938000   0.0013
0.939000   0.00065
0.940000   0.00115
0.941000   0.0008
0.942000   0.0012
0.943000   0.001
0.944000   0.00085
0.945000   0.00125
0.946000   0.0013
0.947000   0.0015
0.948000   0.0007
0.949000   0.00105
0.950000   0.00075
0.951000   0.0011
0.952000   0.00085
0.953000   0.0008
0.954000   0.00135
0.955000   0.0005
0.956000   0.0007
0.957000   0.00065
0.958000   0.0014
0.959000   0.00045
0.960000   0.00145
0.961000   0.00075
0.962000   0.0011
0.963000   0.0015
0.964000   0.0008
0.965000   0.00085
0.966000   0.00055
0.967000   0.0009
0.968000   0.0007
0.969000   0.0012
0.970000   0.00155
0.971000   0.0013
0.972000   0.001
0.973000   0.0005
0.974000   0.001
0.975000   0.001
0.976000   0.0011
0.977000   0.0009
0.978000   0.0016
0.979000   0.0008
0.980000   0.0014
0.981000   0.00115
0.982000   0.00075
0.983000   0.00095
0.984000   0.0007
0.985000   0.00085
0.986000   0.0007
0.987000   0.00135
0.988000   0.0003
0.989000   0.0007
0.990000   0.00105
0.991000   0.0009
0.992000   0.00085
0.993000   0.0009
0.994000   0.00125
0.995000   0.00075
0.996000   0.00135
0.997000   0.00075
0.998000   0.0016
0.999000   0.0008
1.00000   0.0014
1.00100   0.0009
1.00200   0.00105
1.00300   0.00115
1.00400   0.00105
1.00500   0.00135
1.00600   0.0003
1.00700   0.0012
1.00800   0.0007
1.00900   0.00095
1.01000   0.0015
1.01100   0.00125
1.01200   0.00115
1.01300   0.0011
1.01400   0.00105
1.01500   0.00015
1.01600   0.0012
1.01700   0.0009
1.01800   0.00105
1.01900   0.0008
1.02000   0.0017
1.02100   0.00085
1.02200   0.00095
1.02300   0.0014
1.02400   0.0011
1.02500   0.0013
1.02600   0.00085
1.02700   0.00145
1.02800   0.00105
1.02900   0.00075
1.03000   0.00085
1.03100   0.00105
1.03200   0.00135
1.03300   0.00085
1.03400   0.00105
1.03500   0.0006
1.03600   0.0009
1.03700   0.00085
1.03800   0.0009
1.03900   0.00045
1.04000   0.001
1.04100   0.0006
1.04200   0.0008
1.04300   0.0016
1.04400   0.00095
1.04500   0.00135
1.04600   0.0009
1.04700   0.0011
1.04800   0.00055
1.04900   0.0015
1.05000   0.00115
1.05100   0.0006
1.05200   0.0007
1.05300   0.00075
1.05400   0.0013
1.05500   0.00085
1.05600   0.0011
1.05700   0.00085
1.05800   0.0011
1.05900   0.0007
1.06000   0.0009
1.06100   0.00095
1.06200   0.0008
1.06300   0.0012
1.06400   0.0008
1.06500   0.0013
1.06600   0.0007
1.06700   0.00125
1.06800   0.00075
1.06900   0.00055
1.07000   0.00115
1.07100   0.00075
1.07200   0.00085
1.07300   0.0007
1.07400   0.0015
1.07500   0.00075
1.07600   0.00155
1.07700   0.0011
1.07800   0.00115
1.07900   0.00115
1.08000   0.00105
1.08100   0.00065
1.08200   0.0013
1.08300   0.00115
1.08400   0.0008
1.08500   0.00125
1.08600   0.00065
1.08700   0.0006
1.08800   0.0004
1.08900   0.00045
1.09000   0.0015
1.09100   0.00105
1.09200   0.00115
1.09300   0.0007
1.09400   0.0015
1.09500   0.00095
1.09600   0.0013
1.09700   0.00135
1.09800   0.00165
1.09900   0.001
1.10000   0.00105
1.10100   0.0008
1.10200   0.0012
1.10300   0.0018
1.10400   0.0007
1.10500   0.00115
1.10600   0.0011
1.10700   0.00145
1.10800   0.00145
1.10900   0.00115
1.11000   0.00125
1.11100   0.00095
1.11200   0.0016
1.11300   0.0008
1.11400   0.00105
1.11500   0.0006
1.11600   0.0009
1.11700   0.0003
1.11800   0.0006
1.11900   0.0004
1.12000   0.0005
1.12100   0.001
1.12200   0.00085
1.12300   0.0017
1.12400   0.0007
1.12500   0.0013
1.12600   0.00145
1.12700   0.00175
1.12800   0.00155
1.12900   0.0012
1.13000   0.00095
1.13100   0.0001
1.13200   0.0006
1.13300   0.0002
1.13400   0.00115
1.13500   0.00125
1.13600   0.0017
1.13700   0.0013
1.13800   0.001
1.13900   0.0005
1.14000   0.0006
1.14100   0.00065
1.14200   0.0001
1.14300   0.0006
1.14400   0.00065
1.14500   0.0011
1.14600   0.0007
1.14700   0.00115
1.14800   0.00145
1.14900   0.00095
1.15000   0.001
1.15100   0.00095
1.15200   0.0011
1.15300   0.0005
1.15400   0.0006
1.15500   0.0002
1.15600   0.00035
1.15700   0.0003
1.15800   0.00145
1.15900   0.00135
1.16000   0.00135
1.16100   0.00145
1.16200   0.00075
1.16300   0.0011
1.16400   0.00045
1.16500   0.0012
1.16600   0.0006
1.16700   0.00095
1.16800   0.00115
1.16900   0.00095
1.17000   0.0012
1.17100   0.0003
1.17200   0.00115
1.17300   0.0009
1.17400   0.00125
1.17500   0.00065
1.17600   0.0013
1.17700   0.0014
1.17800   0.0012
1.17900   0.0011
1.18000   0.00105
1.18100   0.0012
1.18200   0.0005
1.18300   0.0012
1.18400   0.0007
1.18500   0.0006
1.18600   0.0004
1.18700   0.00045
1.18800   0.0002
1.18900   0
1.19000   0.0006
1.19100   0.0007
1.19200   0.00085
1.19300   0.00075
1.19400   0.0013
1.19500   0.0008
1.19600   0.0011
1.19700   0.0006
1.19800   0.00135
1.19900   0.0013
1.20000   0.002
1.20100   0.00135
1.20200   0.00115
1.20300   0.0011
1.20400   0.00085
1.20500   0.001
1.20600   0.0007
1.20700   0.00155
1.20800   0.0008
1.20900   0.00105
1.21000   0.0011
1.21100   0.0011
1.21200   0.00115
1.21300   0.0007
1.21400   0.0011
1.21500   0.00105
1.21600   0.00145
1.21700   0.00085
1.21800   0.0015
1.21900   0.0009
1.22000   0.00135
1.22100   0.00095
1.22200   0.00105
1.22300   0.00125
1.22400   0.00085
1.22500   0.0014
1.22600   0.00095
1.22700   0.0011
1.22800   0.0007
1.22900   0.0006
1.23000   0.00075
1.23100   0.00105
1.23200   0.00125
1.23300   0.001
1.23400   0.001
1.23500   0.0001
1.23600   0.0012
1.23700   0.00045
1.23800   0.00055
1.23900   0.0008
1.24000   0.0015
1.24100   0.00095
1.24200   0.0006
1.24300   0.00065
1.24400   0.0005
1.24500   0.0011
1.24600   0.0008
1.24700   0.0012
1.24800   0.00105
1.24900   0.00105
1.25000   0.00075
1.25100   0.0011
1.25200   0.0016
1.25300   0.0011
1.25400   0.0017
1.25500   0.0012
1.25600   0.0014
1.25700   0.00115
1.25800   0.0013
1.25900   0.00105
1.26000   0.0019
1.26100   0.0016
1.26200   0.00075
1.26300   0.00115
1.26400   0.00095
1.26500   0.0014
1.26600   0.00085
1.26700   0.0011
1.26800   0.0008
1.26900   0.0011
1.27000   0.00085
1.27100   0.00065
1.27200   0.001
1.27300   0.00085
1.27400   0.001
1.27500   0.0008
1.27600   0.0014
1.27700   0.00085
1.27800   0.00085
1.27900   0.0005
1.28000   0.00125
1.28100   0.00125
1.28200   0.00095
1.28300   0.0011
1.28400   0.0008
1.28500   0.00125
1.28600   0.0006
1.28700   0.0011
1.28800   0.00065
1.28900   0.0008
1.29000   0.00115
1.29100   0.00085
1.29200   0.0011
1.29300   0.001
1.29400   0.0011
1.29500   0.00055
1.29600   0.00145
1.29700   0.0008
1.29800   0.00085
1.29900   0.00095
1.30000   0.0013
1.30100   0.001
1.30200   0.00075
1.30300   0.00095
1.30400   0.0005
1.30500   0.00115
1.30600   0.0009
1.30700   0.00075
1.30800   0.00055
1.30900   0.00065
1.31000   0.0013
1.31100   0.001
1.31200   0.001
1.31300   0.00065
1.31400   0.00145
1.31500   0.00085
1.31600   0.00165
1.31700   0.0015
1.31800   0.00215
1.31900   0.00245
1.32000   0.003
1.32100   0.00225
1.32200   0.00205
1.32300   0.0025
1.32400   0.00155
1.32500   0.00145
1.32600   0.00125
1.32700   0.00125
1.32800   0.001
1.32900   0.001
1.33000   0.00125
1.33100   0.001
1.33200   0.001
1.33300   0.0003
1.33400   0.0009
1.33500   0.001
1.33600   0.0011
1.33700   0.00085
1.33800   0.0012
1.33900   0.00115
1.34000   0.0014
1.34100   0.00125
1.34200   0.0011
1.34300   0.00185
1.34400   0.0012
1.34500   0.0013
1.34600   0.0008
1.34700   0.0016
1.34800   0.00135
1.34900   0.00115
1.35000   0.0019
1.35100   0.00065
1.35200   0.00075
1.35300   0
1.35400   0.00005
1.35500   0.0009
1.35600   0.0017
1.35700   0.00125
1.35800   0.00065
1.35900   0.00085
1.36000   0
1.36100   0.0013
1.36200   0.00445
1.36300   0.00115
1.36400   0.0011
1.36500   0.0036
1.36600   0.00055
1.36700   0.00075
1.36800   0.0019
1.36900   0.0007
1.37000   0.00095
1.37100   0.0025
1.37200   0.00215
1.37300   0.00105
1.37400   0.0016
1.37500   0.0007
1.37600   0.0012
1.37700   0.0014
1.37800   0.00025
1.37900   0
1.38000   0.0011
1.38100   0.00065
1.38200   0.00195
1.38300   0.00325
1.38400   0.0006
1.38500   0.00205
1.38600   0.0004
1.38700   0
1.38800   0.0022
1.38900   0.0013
1.39000   0.00105
1.39100   0
1.39200   0.0025
1.39300   0.00025
1.39400   0
1.39500   0.00095
1.39600   0.0028
1.39700   0.00165
1.39800   0.0003
1.39900   0.0003
1.40000   0.0017
1.40100   0.0023
1.40200   0.00075
1.40300   0.00035
1.40400   0.00015
1.40500   0.00255
1.40600   0
1.40700   0.0017
1.40800   0.00045
1.40900   0.00195
1.41000   0.00195
1.41100   0.0007
1.41200   0.0013
1.41300   0.00025
1.41400   0.00165
1.41500   0.00135
1.41600   0.001
1.41700   0.0006
1.41800   0.0009
1.41900   0.0011
1.42000   0.00125
1.42100   0.00125
1.42200   0.0012
1.42300   0.0018
1.42400   0.0007
1.42500   0.00105
1.42600   0.0001
1.42700   0.00075
1.42800   0.0009
1.42900   0.00075
1.43000   0.0014
1.43100   0.00135
1.43200   0.00175
1.43300   0.00065
1.43400   0.00105
1.43500   0.00025
1.43600   0.0011
1.43700   0.00145
1.43800   0.0014
1.43900   0.00125
1.44000   0.00115
1.44100   0.00125
1.44200   0.00115
1.44300   0.00155
1.44400   0.0008
1.44500   0.0016
1.44600   0.00145
1.44700   0.0009
1.44800   0.0008
1.44900   0.00105
1.45000   0.0022
1.45100   0.0019
1.45200   0.0016
1.45300   0.0013
1.45400   0.0017
1.45500   0.0011
1.45600   0.0013
1.45700   0.0011
1.45800   0.0008
1.45900   0.00075
1.46000   0.0014
1.46100   0.00135
1.46200   0.00085
1.46300   0.00155
1.46400   0.0007
1.46500   0.00125
1.46600   0.00075
1.46700   0.00105
1.46800   0.00075
1.46900   0.001
1.47000   0.00115
1.47100   0.0011
1.47200   0.0016
1.47300   0.00065
1.47400   0.00105
1.47500   0.00095
1.47600   0.0011
1.47700   0.00115
1.47800   0.00135
1.47900   0.0016
1.48000   0.0021
1.48100   0.0017
1.48200   0.0012
1.48300   0.00215
1.48400   0.0014
1.48500   0.00115
1.48600   0.0009
1.48700   0.0014
1.48800   0.00125
1.48900   0.001
1.49000   0.0013
1.49100   0.0015
1.49200   0.0018
1.49300   0.00125
1.49400   0.00185
1.49500   0.00175
1.49600   0.00225
1.49700   0.00165
1.49800   0.00145
1.49900   0.001
1.50000   0.00125
1.50100   0.00165
1.50200   0.0011
1.50300   0.0015
1.50400   0.0015
1.50500   0.002
1.50600   0.0015
1.50700   0.0022
1.50800   0.0023
1.50900   0.002
1.51000   0.0024
1.51100   0.0017
1.51200   0.00175
1.51300   0.00125
1.51400   0.002
1.51500   0.0012
1.51600   0.0023
1.51700   0.00175
1.51800   0.0017
1.51900   0.0018
1.52000   0.0026
1.52100   0.0023
1.52200   0.00225
1.52300   0.0027
1.52400   0.00185
1.52500   0.00245
1.52600   0.00145
1.52700   0.00195
1.52800   0.00185
1.52900   0.00215
1.53000   0.00245
1.53100   0.0021
1.53200   0.00285
1.53300   0.00255
1.53400   0.003
1.53500   0.0022
1.53600   0.0029
1.53700   0.0028
1.53800   0.0031
1.53900   0.0029
1.54000   0.0036
1.54100   0.0034
1.54200   0.00285
1.54300   0.0033
1.54400   0.00305
1.54500   0.00395
1.54600   0.0031
1.54700   0.00395
1.54800   0.00355
1.54900   0.00405
1.55000   0.0042
1.55100   0.0036
1.55200   0.0046
1.55300   0.00465
1.55400   0.00525
1.55500   0.0048
1.55600   0.00565
1.55700   0.00575
1.55800   0.00625
1.55900   0.0055
1.56000   0.00615
1.56100   0.00665
1.56200   0.00645
1.56300   0.0071
1.56400   0.0067
1.56500   0.00815
1.56600   0.00785
1.56700   0.0095
1.56800   0.00865
1.56900   0.0086
1.57000   0.0097
1.57100   0.00985
1.57200   0.0103
1.57300   0.01075
1.57400   0.0125
1.57500   0.0124
1.57600   0.0138
1.57700   0.0141
1.57800   0.0152
1.57900   0.0161
1.58000   0.01755
1.58100   0.0187
1.58200   0.01985
1.58300   0.02115
1.58400   0.0209
1.58500   0.0231
1.58600   0.02365
1.58700   0.02635
1.58800   0.02755
1.58900   0.0297
1.59000   0.03195
1.59100   0.03295
1.59200   0.0356
1.59300   0.03725
1.59400   0.0414
1.59500   0.0436
1.59600   0.04765
1.59700   0.0505
1.59800   0.0545
1.59900   0.0575
1.60000   0.06275
1.60100   0.06625
1.60200   0.0714
1.60300   0.07805
1.60400   0.08315
1.60500   0.09055
1.60600   0.09685
1.60700   0.10535
1.60800   0.11395
1.60900   0.12305
1.61000   0.1337
1.61100   0.14365
1.61200   0.15635
1.61300   0.1674
1.61400   0.18265
1.61500   0.19805
1.61600   0.2156
1.61700   0.2315
1.61800   0.2524
1.61900   0.2732
1.62000   0.29675
1.62100   0.31865
1.62200   0.3428
1.62300   0.37005
1.62400   0.39725
1.62500   0.4267
1.62600   0.45475
1.62700   0.4862
1.62800   0.51675
1.62900   0.54835
1.63000   0.5797
1.63100   0.60815
1.63200   0.63835
1.63300   0.6681
1.63400   0.69825
1.63500   0.7222
1.63600   0.7463
1.63700   0.76755
1.63800   0.7886
1.63900   0.80615
1.64000   0.821
1.64100   0.8336
1.64200   0.84355
1.64300   0.8549
1.64400   0.8612
1.64500   0.86785
1.64600   0.86995
1.64700   0.87415
1.64800   0.8772
1.64900   0.87945
1.65000   0.87985
1.65100   0.8787
1.65200   0.8809
1.65300   0.87945
1.65400   0.8822
1.65500   0.8791
1.65600   0.88045
1.65700   0.87945
1.65800   0.88105
1.65900   0.88095
1.66000   0.8807
1.66100   0.88085
1.66200   0.88015
1.66300   0.88285
1.66400   0.88305
1.66500   0.8861
1.66600   0.885
1.66700   0.88755
1.66800   0.8887
1.66900   0.893
1.67000   0.8971
1.67100   0.89245
1.67200   0.8966
1.67300   0.8974
1.67400   0.9005
1.67500   0.9
1.67600   0.9007
1.67700   0.903
1.67800   0.9034
1.67900   0.9047
1.68000   0.90335
1.68100   0.9044
1.68200   0.90095
1.68300   0.90145
1.68400   0.8999
1.68500   0.89945
1.68600   0.89635
1.68700   0.89395
1.68800   0.8946
1.68900   0.8912
1.69000   0.88945
1.69100   0.88315
1.69200   0.8831
1.69300   0.8794
1.69400   0.87805
1.69500   0.8738
1.69600   0.87105
1.69700   0.8681
1.69800   0.8639
1.69900   0.8625
1.70000   0.8582
1.70100   0.85665
1.70200   0.85265
1.70300   0.85355
1.70400   0.8517
1.70500   0.8503
1.70600   0.84705
1.70700   0.84615
1.70800   0.84805
1.70900   0.84755
1.71000   0.84905
1.71100   0.84715
1.71200   0.84955
1.71300   0.8499
1.71400   0.8523
1.71500   0.85325
1.71600   0.8546
1.71700   0.85785
1.71800   0.8614
1.71900   0.8651
1.72000   0.86705
1.72100   0.87155
1.72200   0.8733
1.72300   0.87895
1.72400   0.88115
1.72500   0.88585
1.72600   0.8878
1.72700   0.89035
1.72800   0.8932
1.72900   0.89405
1.73000   0.8955
1.73100   0.8914
1.73200   0.8902
1.73300   0.8864
1.73400   0.883
1.73500   0.87495
1.73600   0.86405
1.73700   0.8532
1.73800   0.84025
1.73900   0.8266
1.74000   0.8071
1.74100   0.7857
1.74200   0.76255
1.74300   0.74135
1.74400   0.7157
1.74500   0.6888
1.74600   0.65995
1.74700   0.6303
1.74800   0.60135
1.74900   0.56955
1.75000   0.539
1.75100   0.50865
1.75200   0.48135
1.75300   0.45325
1.75400   0.42585
1.75500   0.39875
1.75600   0.37305
1.75700   0.3495
1.75800   0.3248
1.75900   0.3052
1.76000   0.28425
1.76100   0.2666
1.76200   0.2475
1.76300   0.2311
1.76400   0.21485
1.76500   0.2012
1.76600   0.1864
1.76700   0.17385
1.76800   0.1626
1.76900   0.15115
1.77000   0.1426
1.77100   0.13175
1.77200   0.1242
1.77300   0.11625
1.77400   0.1088
1.77500   0.1019
1.77600   0.09515
1.77700   0.09
1.77800   0.08405
1.77900   0.07935
1.78000   0.0753
1.78100   0.0721
1.78200   0.06545
1.78300   0.06285
1.78400   0.05895
1.78500   0.0556
1.78600   0.0522
1.78700   0.04955
1.78800   0.04645
1.78900   0.04335
1.79000   0.0425
1.79100   0.0386
1.79200   0.0376
1.79300   0.03545
1.79400   0.0335
1.79500   0.03205
1.79600   0.03045
1.79700   0.0285
1.79800   0.02665
1.79900   0.02635
1.80000   0.02525
1.80100   0.0247
1.80200   0.023
1.80300   0.0223
1.80400   0.02015
1.80500   0.02095
1.80600   0.01985
1.80700   0.01835
1.80800   0.01705
1.80900   0.01515
1.81000   0.0164
1.81100   0.01535
1.81200   0.01625
1.81300   0.01445
1.81400   0.0134
1.81500   0.0133
1.81600   0.01295
1.81700   0.01215
1.81800   0.0102
1.81900   0.00885
1.82000   0.0123
1.82100   0.0121
1.82200   0.01175
1.82300   0.0104
1.82400   0.0071
1.82500   0.00795
1.82600   0.0114
1.82700   0.0068
1.82800   0.009
1.82900   0.007
1.83000   0.008
1.83100   0.00805
1.83200   0.00865
1.83300   0.0051
1.83400   0.00505
1.83500   0.00515
1.83600   0.0062
1.83700   0.0082
1.83800   0.0051
1.83900   0.0048
1.84000   0.0045
1.84100   0.0075
1.84200   0.00845
1.84300   0.00725
1.84400   0.005
1.84500   0.0008
1.84600   0.0017
1.84700   0.00575
1.84800   0.0076
1.84900   0.00455
1.85000   0.00605
1.85100   0.00255
1.85200   0.00325
1.85300   0.00595
1.85400   0.0056
1.85500   0.0023
1.85600   0.0045
1.85700   0.0043
1.85800   0.00125
1.85900   0.00475
1.86000   0.0073
1.86100   0.00525
1.86200   0.00275
1.86300   0.0034
1.86400   0.00455
1.86500   0.00235
1.86600   0.0007
1.86700   0.0037
1.86800   0.00415
1.86900   0.00035
1.87000   0.00335
1.87100   0.00185
1.87200   0.00205
1.87300   0.0054
1.87400   0.0026
1.87500   0.0017
1.87600   0.00335
1.87700   0.0053
1.87800   0.00195
1.87900   0.00245
1.88000   0.00315
1.88100   0.0038
1.88200   0.0017
1.88300   0.00265
1.88400   0.0029
1.88500   0.00215
1.88600   0.00305
1.88700   0.00185
1.88800   0.00065
1.88900   0.0015
1.89000   0.00335
1.89100   0.0021
1.89200   0.00405
1.89300   0.00355
1.89400   0.0033
1.89500   0.00175
1.89600   0.00085
1.89700   0.0013
1.89800   0.00055
1.89900   0.00315
1.90000   0.00385
1.90100   0.0014
1.90200   0.0018
1.90300   0.00205
1.90400   0
1.90500   0.00295
1.90600   0.005
1.90700   0.0028
1.90800   0.0018
1.90900   0.0009
1.91000   0.0018
1.91100   0.0017
1.91200   0.00145
1.91300   0.00265
1.91400   0.0027
1.91500   0.0022
1.91600   0.00285
1.91700   0.00145
1.91800   0
1.91900   0.00035
1.92000   0.00405
1.92100   0.0028
1.92200   0.0006
1.92300   0.0021
1.92400   0.00225
1.92500   0.0007
1.92600   0.0007
1.92700   0.0016
1.92800   0.0022
1.92900   0.0017
1.93000   0.00295
1.93100   0.0015
1.93200   0.00185
1.93300   0.00195
1.93400   0.00205
1.93500   0.0014
1.93600   0.00175
1.93700   0.00075
1.93800   0.00135
1.93900   0.0025
1.94000   0.002
1.94100   0.00185
1.94200   0.0011
1.94300   0.00185
1.94400   0.00175
1.94500   0.00205
1.94600   0.0016
1.94700   0.00175
1.94800   0.00205
1.94900   0.00085
1.95000   0.0014
1.95100   0.0003
1.95200   0.001
1.95300   0.001
1.95400   0.00155
1.95500   0.00125
1.95600   0.0016
1.95700   0.00155
1.95800   0.0011
1.95900   0.0013
1.96000   0.0015
1.96100   0.00145
1.96200   0.00135
1.96300   0.00245
1.96400   0.0017
1.96500   0.002
1.96600   0.00155
1.96700   0.0017
1.96800   0.00135
1.96900   0.00085
1.97000   0.0015
1.97100   0.001
1.97200   0.0015
1.97300   0.0011
1.97400   0.00135
1.97500   0.0014
1.97600   0.0014
1.97700   0.00115
1.97800   0.0013
1.97900   0.0015
1.98000   0.00165
1.98100   0.002
1.98200   0.0013
1.98300   0.0018
1.98400   0.00105
1.98500   0.0012
1.98600   0.0012
1.98700   0.00155
1.98800   0.00145
1.98900   0.00145
1.99000   0.002
1.99100   0.0013
1.99200   0.00185
1.99300   0.0013
1.99400   0.00165
1.99500   0.0014
1.99600   0.0015
1.99700   0.00155
1.99800   0.0014
1.99900   0.00145
2.00000   0.00125
2.00100   0.00145
2.00200   0.0013
2.00300   0.00175
2.00400   0.00145
2.00500   0.0018
2.00600   0.00145
2.00700   0.00145
2.00800   0.0011
2.00900   0.00105
2.01000   0.0017
2.01100   0.0012
2.01200   0.00195
2.01300   0.0013
2.01400   0.0018
2.01500   0.00095
2.01600   0.0013
2.01700   0.0013
2.01800   0.0011
2.01900   0.0013
2.02000   0.0014
2.02100   0.0019
2.02200   0.00135
2.02300   0.002
2.02400   0.00135
2.02500   0.00175
2.02600   0.00115
2.02700   0.0016
2.02800   0.00165
2.02900   0.00145
2.03000   0.0017
2.03100   0.00115
2.03200   0.0016
2.03300   0.00035
2.03400   0.0012
2.03500   0.00095
2.03600   0.0011
2.03700   0.00125
2.03800   0.00125
2.03900   0.0013
2.04000   0.00145
2.04100   0.0013
2.04200   0.00095
2.04300   0.0015
2.04400   0.0008
2.04500   0.00145
2.04600   0.0014
2.04700   0.0017
2.04800   0.00135
2.04900   0.00125
2.05000   0.0019
2.05100   0.00115
2.05200   0.0016
2.05300   0.00115
2.05400   0.00165
2.05500   0.0011
2.05600   0.0013
2.05700   0.0013
2.05800   0.00125
2.05900   0.0008
2.06000   0.0011
2.06100   0.00145
2.06200   0.00105
2.06300   0.0015
2.06400   0.00115
2.06500   0.00195
2.06600   0.0014
2.06700   0.00185
2.06800   0.00095
2.06900   0.0008
2.07000   0.0013
2.07100   0.0011
2.07200   0.00175
2.07300   0.001
2.07400   0.00155
2.07500   0.0011
2.07600   0.0019
2.07700   0.0014
2.07800   0.0017
2.07900   0.0015
2.08000   0.00175
2.08100   0.00115
2.08200   0.00095
2.08300   0.00115
2.08400   0.00075
2.08500   0.0017
2.08600   0.00115
2.08700   0.0015
2.08800   0.0014
2.08900   0.0014
2.09000   0.00125
2.09100   0.00125
2.09200   0.00155
2.09300   0.001
2.09400   0.002
2.09500   0.00135
2.09600   0.0021
2.09700   0.00155
2.09800   0.0014
2.09900   0.001
2.10000   0.00155
2.10100   0.00125
2.10200   0.00115
2.10300   0.00165
2.10400   0.00145
2.10500   0.0017
2.10600   0.0009
2.10700   0.00155
2.10800   0.0011
2.10900   0.0012
2.11000   0.0012
2.11100   0.0017
2.11200   0.0021
2.11300   0.00105
2.11400   0.00135
2.11500   0.00135
2.11600   0.0018
2.11700   0.00115
2.11800   0.0015
2.11900   0.0012
2.12000   0.00165
2.12100   0.0016
2.12200   0.00155
2.12300   0.00175
2.12400   0.00105
2.12500   0.0015
2.12600   0.001
2.12700   0.00165
2.12800   0.00095
2.12900   0.0012
2.13000   0.0015
2.13100   0.0014
2.13200   0.0018
2.13300   0.00165
2.13400   0.001
2.13500   0.001
2.13600   0.00205
2.13700   0.00155
2.13800   0.00165
2.13900   0.0016
2.14000   0.00225
2.14100   0.0018
2.14200   0.00125
2.14300   0.00145
2.14400   0.00115
2.14500   0.0019
2.14600   0.0015
2.14700   0.00255
2.14800   0.0017
2.14900   0.00175
2.15000   0.00155
2.15100   0.0014
2.15200   0.00155
2.15300   0.00135
2.15400   0.0019
2.15500   0.0012
2.15600   0.0015
2.15700   0.00095
2.15800   0.00075
2.15900   0.00065
2.16000   0.00185
2.16100   0.00195
2.16200   0.00205
2.16300   0.00215
2.16400   0.00135
2.16500   0.0026
2.16600   0.0021
2.16700   0.00225
2.16800   0.0013
2.16900   0.0017
2.17000   0.0017
2.17100   0.0016
2.17200   0.00165
2.17300   0.00135
2.17400   0.00165
2.17500   0.0011
2.17600   0.0019
2.17700   0.00175
2.17800   0.00225
2.17900   0.00125
2.18000   0.00235
2.18100   0.0018
2.18200   0.00155
2.18300   0.0013
2.18400   0.0014
2.18500   0.0019
2.18600   0.00175
2.18700   0.0018
2.18800   0.0009
2.18900   0.00165
2.19000   0.0018
2.19100   0.00155
2.19200   0.00175
2.19300   0.0017
2.19400   0.0014
2.19500   0.001
2.19600   0.0017
2.19700   0.0007
2.19800   0.00155
2.19900   0.0014
2.20000   0.00245
2.20100   0.0012
2.20200   0.00145
2.20300   0.00145
2.20400   0.0013
2.20500   0.00175
2.20600   0.00135
2.20700   0.0019
2.20800   0.00105
2.20900   0.0015
2.21000   0.0014
2.21100   0.00175
2.21200   0.00105
2.21300   0.00115
2.21400   0.0015
2.21500   0.00135
2.21600   0.0012
2.21700   0.0009
2.21800   0.0012
2.21900   0.001
2.22000   0.00165
2.22100   0.0009
2.22200   0.00135
2.22300   0.0015
2.22400   0.00125
2.22500   0.0013
2.22600   0.0011
2.22700   0.0013
2.22800   0.00075
2.22900   0.0012
2.23000   0.001
2.23100   0.00175
2.23200   0.0011
2.23300   0.0011
2.23400   0.00115
2.23500   0.0014
2.23600   0.0017
2.23700   0.0013
2.23800   0.00135
2.23900   0.0005
2.24000   0.0018
2.24100   0.00115
2.24200   0.00105
2.24300   0.00095
2.24400   0.0014
2.24500   0.00105
2.24600   0.00125
2.24700   0.0013
2.24800   0.00035
2.24900   0.0013
2.25000   0.001
2.25100   0.0011
2.25200   0.00105
2.25300   0.00115
2.25400   0.0009
2.25500   0.0008
2.25600   0.0012
2.25700   0.0008
2.25800   0.0011
2.25900   0.00095
2.26000   0.00195
2.26100   0.00115
2.26200   0.00135
2.26300   0.001
2.26400   0.001
2.26500   0.00085
2.26600   0.0008
2.26700   0.00155
2.26800   0.001
2.26900   0.00125
2.27000   0.00105
2.27100   0.00125
2.27200   0.00075
2.27300   0.0011
2.27400   0.00075
2.27500   0.00065
2.27600   0.0009
2.27700   0.00105
2.27800   0.001
2.27900   0.00015
2.28000   0.00085
2.28100   0.0006
2.28200   0.00155
2.28300   0.0009
2.28400   0.0011
2.28500   0.0014
2.28600   0.0009
2.28700   0.0011
2.28800   0.0007
2.28900   0.00115
2.29000   0.00075
2.29100   0.00115
2.29200   0.0009
2.29300   0.00125
2.29400   0.00115
2.29500   0.0012
2.29600   0.001
2.29700   0.0009
2.29800   0.00035
2.29900   0.00005
2.30000   0.0017
2.30100   0.0013
2.30200   0.0015
2.30300   0.00065
2.30400   0.00075
2.30500   0.00085
2.30600   0.00145
2.30700   0.001
2.30800   0.00075
2.30900   0.00125
2.31000   0.00095
2.31100   0.0009
2.31200   0.0005
2.31300   0.0011
2.31400   0.00065
2.31500   0.0011
2.31600   0.00095
2.31700   0.0011
2.31800   0.00155
2.31900   0.00135
2.32000   0.00145
2.32100   0.00095
2.32200   0.0016
2.32300   0.00075
2.32400   0.0011
2.32500   0.00085
2.32600   0.00125
2.32700   0.00115
2.32800   0.0011
2.32900   0.00135
2.33000   0.00125
2.33100   0.00055
2.33200   0.00015
2.33300   0.001
2.33400   0.00105
2.33500   0.0011
2.33600   0.00105
2.33700   0.0012
2.33800   0.00095
2.33900   0.0006
2.34000   0.0014
2.34100   0.001
2.34200   0.00135
2.34300   0.0007
2.34400   0.00125
2.34500   0.00125
2.34600   0.00165
2.34700   0.0011
2.34800   0.00105
2.34900   0.0007
2.35000   0.00115
2.35100   0.00155
2.35200   0.00095
2.35300   0.0016
2.35400   0.00055
2.35500   0.0007
2.35600   0.00055
2.35700   0.0013
2.35800   0.0011
2.35900   0.0011
2.36000   0.00165
2.36100   0.00095
2.36200   0.0013
2.36300   0.0008
2.36400   0.00115
2.36500   0.00085
2.36600   0.0017
2.36700   0.00125
2.36800   0.00115
2.36900   0.00115
2.37000   0.00145
2.37100   0.0013
2.37200   0.0007
2.37300   0.00105
2.37400   0.0007
2.37500   0.00175
2.37600   0.00145
2.37700   0.0018
2.37800   0.001
2.37900   0.00085
2.38000   0.00105
2.38100   0.0009
2.38200   0.00105
2.38300   0.0008
2.38400   0.0017
2.38500   0.0014
2.38600   0.0013
2.38700   0.0008
2.38800   0.00135
2.38900   0.0009
2.39000   0.0016
2.39100   0.0014
2.39200   0.00135
2.39300   0.0022
2.39400   0.0011
2.39500   0.0018
2.39600   0.0015
2.39700   0.00145
2.39800   0.0008
2.39900   0.00125
2.40000   0.0013
2.40100   0.00135
2.40200   0.0016
2.40300   0.00175
2.40400   0.00235
2.40500   0.0014
2.40600   0.0018
2.40700   0.00115
2.40800   0.00155
2.40900   0.0015
2.41000   0.00215
2.41100   0.0021
2.41200   0.0017
2.41300   0.002
2.41400   0.00155
2.41500   0.0015
2.41600   0.0014
2.41700   0.00215
2.41800   0.002
2.41900   0.00185
2.42000   0.002
2.42100   0.00205
2.42200   0.0021
2.42300   0.00165
2.42400   0.002
2.42500   0.00145
2.42600   0.00205
2.42700   0.00135
2.42800   0.0023
2.42900   0.0019
2.43000   0.00275
2.43100   0.00205
2.43200   0.0016
2.43300   0.0018
2.43400   0.00205
2.43500   0.0029
2.43600   0.0018
2.43700   0.0023
2.43800   0.0017
2.43900   0.00155
2.44000   0.00165
2.44100   0.0019
2.44200   0.0017
2.44300   0.0018
2.44400   0.0021
2.44500   0.00155
2.44600   0.0025
2.44700   0.0014
2.44800   0.0013
2.44900   0.0012
2.45000   0.0023
2.45100   0.00155
2.45200   0.00145
2.45300   0.0015
2.45400   0.0014
2.45500   0.00145
2.45600   0.0009
2.45700   0.00115
2.45800   0.00085
2.45900   0.0019
2.46000   0.0017
2.46100   0.0025
2.46200   0.00245
2.46300   0.0021
2.46400   0.00185
2.46500   0.0014
2.46600   0.0018
2.46700   0.0013
2.46800   0.00115
2.46900   0.0006
2.47000   0.00225
2.47100   0.0021
2.47200   0.0017
2.47300   0.00145
2.47400   0.0013
2.47500   0.00145
2.47600   0.0009
2.47700   0.00155
2.47800   0.00075
2.47900   0.00145
2.48000   0.0009
2.48100   0.00105
2.48200   0.00095
2.48300   0.0011
2.48400   0.001
2.48500   0.00115
2.48600   0.0019
2.48700   0.0014
2.48800   0.0013
2.48900   0.0008
2.49000   0.0013
2.49100   0.00075
2.49200   0.0012
2.49300   0.00115
2.49400   0.00165
2.49500   0.0013
2.49600   0.00075
2.49700   0.0011
2.49800   0.001
2.49900   0.00125
2.50000   0.00105
2.50100   2.87E-03
2.50200   3.03E-03
2.50300   3.78E-03
2.50400   2.34E-03
2.50500   1.44E-03
2.50600   2.31E-03
2.50700   1.99E-03
2.50800   2.30E-03
2.50900   2.32E-03
2.51000   1.64E-03
2.51100   0
2.51200   7.10E-04
2.51300   1.41E-03
2.51400   9.45E-04
2.51500   1.19E-03
2.51600   3.14E-03
2.51700   4.61E-04
2.51800   1.81E-03
2.51900   1.50E-03
2.52000   3.35E-03
2.52100   1.30E-03
2.52200   1.94E-03
2.52300   2.51E-03
2.52400   2.42E-04
2.52500   0
2.52600   1.32E-03
2.52700   1.56E-03
2.52800   1.69E-03
2.52900   2.84E-03
2.53000   2.29E-03
2.53100   3.79E-03
2.53200   2.39E-03
2.53300   1.94E-03
2.53400   2.87E-03
2.53500   3.46E-03
2.53600   3.74E-03
2.53700   4.16E-03
2.53800   4.02E-03
2.53900   5.39E-03
2.54000   1.03E-03
2.54100   4.35E-03
2.54200   5.01E-03
2.54300   4.13E-03
2.54400   2.89E-03
2.54500   1.93E-03
2.54600   2.82E-03
2.54700   5.07E-03
2.54800   5.72E-03
2.54900   3.28E-03
2.55000   3.75E-03
2.55100   5.18E-03
2.55200   3.68E-03
2.55300   5.29E-03
2.55400   3.24E-03
2.55500   1.99E-03
2.55600   1.87E-03
2.55700   1.03E-03
2.55800   1.15E-03
2.55900   1.94E-03
2.56000   0.0015625
2.56100   1.76E-03
2.56200   1.66E-03
2.56300   1.61E-03
2.56400   2.83E-03
2.56500   2.79E-03
2.56600   0.00355
2.56700   0.0031392
2.56800   2.53E-03
2.56900   1.84E-03
2.57000   2.98E-03
2.57100   9.25E-04
2.57200   1.08E-03
2.57300   1.45E-03
2.57400   1.90E-03
2.57500   9.95E-04
2.57600   4.02E-04
2.57700   4.98E-04
2.57800   7.63E-05
2.57900   1.76E-03
2.58000   2.21E-03
2.58100   1.32E-03
2.58200   1.54E-03
2.58300   1.22E-03
2.58400   6.81E-04
2.58500   2.49E-03
2.58600   4.45E-03
2.58700   3.10E-03
2.58800   2.42E-03
2.58900   3.80E-03
2.59000   3.70E-03
2.59100   4.01E-03
2.59200   3.62E-03
2.59300   2.21E-04
2.59400   0
2.59500   1.55E-03
2.59600   2.93E-03
2.59700   1.64E-03
2.59800   1.21E-03
2.59900   1.25E-03
2.60000   2.40E-03
2.60100   3.42E-03
2.60200   2.21E-03
2.60300   2.28E-03
2.60400   2.94E-03
2.60500   2.94E-03
2.60600   2.86E-03
2.60700   2.51E-03
2.60800   2.30E-03
2.60900   3.23E-03
2.61000   3.11E-03
2.61100   3.01E-03
2.61200   2.07E-03
2.61300   2.24E-03
2.61400   2.95E-03
2.61500   3.06E-03
2.61600   2.51E-03
2.61700   0.00235
2.61800   2.41E-03
2.61900   3.00E-03
2.62000   3.59E-03
2.62100   2.89E-03
2.62200   2.21E-03
2.62300   1.96E-03
2.62400   2.40E-03
2.62500   2.50E-03
2.62600   2.77E-03
2.62700   3.02E-03
2.62800   3.46E-03
2.62900   4.75E-03
2.63000   5.62E-03
2.63100   5.49E-03
2.63200   4.84E-03
2.63300   3.03E-03
2.63400   1.28E-03
2.63500   9.93E-04
2.63600   1.69E-03
2.63700   2.42E-03
2.63800   2.68E-03
2.63900   2.36E-03
2.64000   2.29E-03
2.64100   2.79E-03
2.64200   1.95E-03
2.64300   3.19E-03
2.64400   4.81E-03
2.64500   4.21E-03
2.64600   2.60E-03
2.64700   3.25E-03
2.64800   3.89E-03
2.64900   2.56E-03
2.65000   2.93E-03
2.65100   3.94E-03
2.65200   4.52E-03
2.65300   3.31E-03
2.65400   2.21E-03
2.65500   4.03E-03
2.65600   3.77E-03
2.65700   3.74E-03
2.65800   3.05E-03
2.65900   6.84E-04
2.66000   1.64E-03
2.66100   7.34E-04
2.66200   0
2.66300   2.53E-04
2.66400   1.71E-03
2.66500   2.33E-03
2.66600   1.77E-03
2.66700   1.39E-03
2.66800   1.81E-03
2.66900   2.06E-03
2.67000   1.48E-03
2.67100   1.34E-03
2.67200   2.19E-03
2.67300   3.09E-03
2.67400   2.84E-03
2.67500   2.89E-03
2.67600   3.07E-03
2.67700   1.46E-03
2.67800   9.24E-04
2.67900   3.00E-03
2.68000   7.84E-04
2.68100   1.08E-04
2.68200   1.51E-03
2.68300   1.68E-03
2.68400   1.19E-03
2.68500   5.75E-04
2.68600   1.19E-03
2.68700   3.52E-03
2.68800   4.18E-03
2.68900   4.39E-03
2.69000   3.79E-03
2.69100   3.50E-03
2.69200   4.53E-03
2.69300   4.73E-03
2.69400   4.88E-03
2.69500   4.06E-03
2.69600   1.72E-03
2.69700   0
2.69800   8.78E-04
2.69900   2.09E-03
2.70000   2.52E-03
2.70100   2.97E-03
2.70200   3.42E-03
2.70300   3.43E-03
2.70400   1.55E-03
2.70500   1.14E-03
2.70600   1.25E-03
2.70700   2.06E-03
2.70800   3.52E-03
2.70900   3.51E-03
2.71000   2.72E-03
2.71100   3.61E-03
2.71200   4.11E-03
2.71300   1.47E-03
2.71400   1.00E-03
2.71500   1.42E-03
2.71600   1.55E-03
2.71700   9.42E-04
2.71800   8.56E-04
2.71900   0.0013241
2.72000   2.27E-03
2.72100   3.04E-03
2.72200   3.15E-03
2.72300   2.86E-03
2.72400   1.96E-03
2.72500   3.28E-03
2.72600   2.95E-03
2.72700   0.0027
2.72800   2.38E-03
2.72900   1.41E-03
2.73000   8.01E-04
2.73100   1.07E-03
2.73200   2.08E-03
2.73300   3.41E-03
2.73400   4.43E-03
2.73500   5.13E-03
2.73600   5.61E-03
2.73700   5.80E-03
2.73800   5.42E-03
2.73900   5.19E-03
2.74000   4.55E-03
2.74100   3.25E-03
2.74200   2.26E-03
2.74300   2.54E-03
2.74400   0.00225
2.74500   3.11E-03
2.74600   0.0039
2.74700   3.77E-03
2.74800   3.50E-03
2.74900   2.93E-03
2.75000   2.20E-03
2.75100   3.20E-03
2.75200   4.48E-03
2.75300   4.71E-03
2.75400   4.15E-03
2.75500   3.27E-03
2.75600   1.82E-03
2.75700   3.61E-04
2.75800   1.91E-03
2.75900   4.17E-03
2.76000   3.59E-03
2.76100   2.80E-03
2.76200   0.002606
2.76300   1.27E-03
2.76400   1.60E-03
2.76500   2.72E-03
2.76600   3.20E-03
2.76700   3.20E-03
2.76800   3.72E-03
2.76900   2.68E-03
2.77000   2.17E-03
2.77100   2.01E-03
2.77200   2.42E-03
2.77300   3.08E-03
2.77400   2.71E-03
2.77500   3.16E-03
2.77600   4.15E-03
2.77700   4.85E-03
2.77800   4.21E-03
2.77900   3.34E-03
2.78000   3.05E-03
2.78100   3.60E-03
2.78200   2.93E-03
2.78300   1.28E-03
2.78400   1.18E-03
2.78500   1.88E-03
2.78600   2.68E-03
2.78700   3.09E-03
2.78800   2.07E-03
2.78900   2.22E-03
2.79000   2.96E-03
2.79100   3.36E-03
2.79200   2.41E-03
2.79300   2.10E-03
2.79400   3.24E-03
2.79500   3.56E-03
2.79600   2.56E-03
2.79700   0.0029147
2.79800   3.82E-03
2.79900   4.92E-03
2.80000   3.84E-03
2.80100   2.67E-03
2.80200   3.15E-03
2.80300   3.61E-03
2.80400   3.40E-03
2.80500   1.70E-03
2.80600   3.37E-04
2.80700   2.43E-03
2.80800   2.79E-03
2.80900   2.25E-03
2.81000   1.96E-03
2.81100   2.26E-03
2.81200   2.08E-03
2.81300   1.29E-03
2.81400   2.90E-03
2.81500   2.35E-03
2.81600   2.48E-03
2.81700   3.35E-03
2.81800   4.07E-03
2.81900   3.68E-03
2.82000   3.27E-03
2.82100   2.02E-03
2.82200   0
2.82300   1.37E-03
2.82400   2.69E-03
2.82500   1.94E-03
2.82600   2.06E-03
2.82700   2.87E-03
2.82800   0.003
2.82900   2.80E-03
2.83000   1.42E-03
2.83100   1.59E-03
2.83200   2.78E-03
2.83300   3.78E-03
2.83400   3.83E-03
2.83500   4.76E-03
2.83600   4.20E-03
2.83700   1.60E-03
2.83800   2.82E-03
2.83900   3.55E-03
2.84000   7.05E-04
2.84100   1.23E-03
2.84200   3.19E-03
2.84300   3.43E-03
2.84400   2.48E-03
2.84500   1.80E-03
2.84600   3.28E-03
2.84700   4.37E-03
2.84800   3.29E-03
2.84900   3.20E-03
2.85000   4.29E-03
2.85100   3.64E-03
2.85200   3.27E-03
2.85300   2.98E-03
2.85400   1.43E-03
2.85500   0.00045
2.85600   1.05E-03
2.85700   2.15E-03
2.85800   2.33E-03
2.85900   1.63E-03
2.86000   7.51E-04
2.86100   8.87E-04
2.86200   1.66E-03
2.86300   2.84E-03
2.86400   2.19E-03
2.86500   2.04E-03
2.86600   2.78E-03
2.86700   3.53E-03
2.86800   2.93E-03
2.86900   2.54E-03
2.87000   2.66E-03
2.87100   2.98E-03
2.87200   2.13E-03
2.87300   2.91E-03
2.87400   2.73E-03
2.87500   1.53E-03
2.87600   8.68E-04
2.87700   1.38E-03
2.87800   2.26E-04
2.87900   3.22E-04
2.88000   1.88E-03
2.88100   2.69E-03
2.88200   1.88E-03
2.88300   1.39E-03
2.88400   0
2.88500   7.10E-04
2.88600   3.39E-03
2.88700   3.44E-03
2.88800   2.20E-03
2.88900   2.11E-03
2.89000   1.70E-03
2.89100   1.05E-03
2.89200   2.27E-03
2.89300   2.06E-03
2.89400   3.25E-03
2.89500   2.09E-03
2.89600   5.43E-04
2.89700   1.57E-04
2.89800   1.37E-03
2.89900   2.58E-03
2.90000   2.74E-03
2.90100   2.57E-03
2.90200   1.77E-03
2.90300   7.19E-04
2.90400   0
2.90500   3.30E-05
2.90600   7.25E-04
2.90700   1.36E-03
2.90800   1.76E-03
2.90900   2.52E-03
2.91000   3.56E-03
2.91100   2.77E-03
2.91200   1.42E-03
2.91300   6.79E-04
2.91400   1.56E-03
2.91500   1.57E-03
2.91600   4.95E-04
2.91700   6.28E-04
2.91800   1.15E-03
2.91900   3.68E-03
2.92000   4.74E-03
2.92100   2.75E-03
2.92200   2.07E-03
2.92300   3.39E-03
2.92400   2.05E-03
2.92500   6.13E-04
2.92600   2.61E-03
2.92700   2.35E-03
2.92800   1.89E-03
2.92900   4.38E-03
2.93000   5.28E-03
2.93100   2.68E-03
2.93200   6.60E-04
2.93300   1.33E-03
2.93400   2.17E-03
2.93500   2.62E-03
2.93600   3.54E-03
2.93700   2.53E-03
2.93800   3.01E-03
2.93900   3.14E-03
2.94000   1.45E-03
2.94100   5.21E-04
2.94200   8.78E-04
2.94300   1.80E-03
2.94400   3.11E-03
2.94500   1.13E-03
2.94600   0
2.94700   5.25E-04
2.94800   1.97E-03
2.94900   2.71E-03
2.95000   3.17E-03
2.95100   2.92E-03
2.95200   2.14E-03
2.95300   1.51E-03
2.95400   1.51E-03
2.95500   9.12E-04
2.95600   0.001855
2.95700   8.93E-04
2.95800   9.56E-04
2.95900   2.05E-03
2.96000   2.09E-03
2.96100   1.78E-03
2.96200   2.11E-03
2.96300   1.73E-03
2.96400   1.39E-03
2.96500   1.37E-03
2.96600   1.11E-03
2.96700   2.43E-03
2.96800   4.85E-03
2.96900   3.47E-03
2.97000   1.85E-03
2.97100   2.39E-03
2.97200   1.78E-03
2.97300   1.21E-03
2.97400   1.90E-03
2.97500   2.97E-03
2.97600   2.70E-03
2.97700   2.05E-03
2.97800   2.52E-03
2.97900   1.82E-03
2.98000   1.58E-03
2.98100   1.32E-03
2.98200   1.05E-03
2.98300   1.97E-04
2.98400   9.84E-05
2.98500   5.84E-05
2.98600   2.69E-04
2.98700   6.23E-04
2.98800   0
2.98900   2.59E-04
2.99000   2.59E-03
2.99100   3.45E-03
2.99200   3.59E-03
2.99300   4.04E-03
2.99400   3.06E-03
2.99500   2.81E-03
2.99600   1.90E-03
2.99700   1.65E-03
2.99800   2.16E-03
2.99900   1.86E-03
3.00000   2.07E-03
3.00100   2.72E-03
3.00200   4.27E-03
3.00300   4.10E-03
3.00400   2.12E-03
3.00500   1.96E-03
3.00600   2.22E-03
3.00700   1.95E-03
3.00800   1.44E-03
3.00900   2.21E-03
3.01000   3.14E-03
3.01100   2.88E-03
3.01200   2.37E-03
3.01300   9.40E-04
3.01400   8.70E-04
3.01500   1.80E-03
3.01600   2.60E-03
3.01700   2.54E-03
3.01800   2.32E-03
3.01900   2.17E-03
3.02000   2.14E-03
3.02100   1.52E-03
3.02200   1.87E-03
3.02300   9.31E-04
3.02400   0
3.02500   1.50E-03
3.02600   2.98E-03
3.02700   2.64E-03
3.02800   2.28E-03
3.02900   2.11E-03
3.03000   1.66E-03
3.03100   1.62E-03
3.03200   1.57E-03
3.03300   1.02E-04
3.03400   2.11E-03
3.03500   4.89E-03
3.03600   2.95E-03
3.03700   2.16E-03
3.03800   1.60E-03
3.03900   4.61E-04
3.04000   1.07E-03
3.04100   1.53E-03
3.04200   1.45E-03
3.04300   6.31E-04
3.04400   0
3.04500   2.21E-04
3.04600   2.44E-03
3.04700   0.0011875
3.04800   1.58E-04
3.04900   1.46E-03
3.05000   1.84E-03
3.05100   7.25E-04
3.05200   9.24E-04
3.05300   3.87E-03
3.05400   5.07E-03
3.05500   2.45E-03
3.05600   9.38E-04
3.05700   1.04E-04
3.05800   1.64E-03
3.05900   3.81E-03
3.06000   1.68E-03
3.06100   1.13E-03
3.06200   1.99E-03
3.06300   2.44E-03
3.06400   3.18E-03
3.06500   2.59E-03
3.06600   1.87E-03
3.06700   2.60E-03
3.06800   3.24E-03
3.06900   2.97E-03
3.07000   3.86E-03
3.07100   2.96E-03
3.07200   2.33E-04
3.07300   7.56E-04
3.07400   1.81E-03
3.07500   3.04E-04
3.07600   1.36E-03
3.07700   1.89E-03
3.07800   1.37E-03
3.07900   3.01E-03
3.08000   3.69E-03
3.08100   2.12E-03
3.08200   1.33E-03
3.08300   9.75E-04
3.08400   6.14E-04
3.08500   1.21E-03
3.08600   1.62E-03
3.08700   1.33E-03
3.08800   6.89E-04
3.08900   6.97E-04
3.09000   2.08E-03
3.09100   3.30E-03
3.09200   2.10E-03
3.09300   0
3.09400   0
3.09500   0
3.09600   4.44E-04
3.09700   2.18E-03
3.09800   3.31E-03
3.09900   3.21E-03
3.10000   2.20E-03
3.10100   1.36E-03
3.10200   2.49E-03
3.10300   3.31E-03
3.10400   2.71E-03
3.10500   2.34E-03
3.10600   8.54E-04
3.10700   1.52E-03
3.10800   3.55E-03
3.10900   2.88E-03
3.11000   1.12E-03
3.11100   1.56E-03
3.11200   3.15E-03
3.11300   0.0037
3.11400   2.69E-03
3.11500   2.14E-03
3.11600   1.65E-03
3.11700   7.92E-04
3.11800   1.29E-03
3.11900   1.70E-03
3.12000   2.75E-03
3.12100   3.44E-03
3.12200   2.44E-03
3.12300   1.26E-03
3.12400   1.74E-03
3.12500   0.00335
3.12600   3.47E-03
3.12700   4.22E-03
3.12800   3.51E-03
3.12900   2.95E-03
3.13000   2.48E-03
3.13100   2.67E-03
3.13200   2.44E-03
3.13300   2.24E-03
3.13400   1.40E-03
3.13500   1.30E-03
3.13600   1.54E-03
3.13700   1.12E-03
3.13800   1.60E-03
3.13900   2.08E-03
3.14000   2.48E-03
3.14100   2.51E-03
3.14200   3.36E-03
3.14300   3.77E-03
3.14400   2.41E-03
3.14500   6.38E-04
3.14600   0
3.14700   0
3.14800   8.50E-07
3.14900   1.72E-03
3.15000   2.31E-03
3.15100   7.25E-04
3.15200   4.43E-04
3.15300   7.54E-04
3.15400   0
3.15500   0
3.15600   0
3.15700   1.12E-03
3.15800   2.74E-03
3.15900   3.23E-03
3.16000   1.87E-03
3.16100   0
3.16200   0
3.16300   1.14E-03
3.16400   3.05E-03
3.16500   4.03E-03
3.16600   4.94E-03
3.16700   4.92E-03
3.16800   3.48E-03
3.16900   1.96E-03
3.17000   1.47E-03
3.17100   7.71E-04
3.17200   8.52E-04
3.17300   2.09E-03
3.17400   2.63E-03
3.17500   2.44E-03
3.17600   1.60E-03
3.17700   1.42E-04
3.17800   0
3.17900   0
3.18000   2.38E-04
3.18100   1.53E-03
3.18200   1.93E-03
3.18300   1.92E-03
3.18400   1.32E-03
3.18500   3.56E-04
3.18600   9.29E-04
3.18700   2.20E-03
3.18800   2.27E-03
3.18900   0.00155
3.19000   1.90E-03
3.19100   3.26E-03
3.19200   2.78E-03
3.19300   0
3.19400   0
3.19500   0
3.19600   1.51E-03
3.19700   3.09E-03
3.19800   2.92E-03
3.19900   2.38E-03
3.20000   0.0014
3.20100   1.69E-03
3.20200   2.60E-03
3.20300   2.84E-03
3.20400   3.71E-03
3.20500   3.76E-03
3.20600   9.93E-04
3.20700   0
3.20800   5.20E-04
3.20900   1.37E-03
3.21000   2.17E-03
3.21100   2.51E-03
3.21200   9.30E-04
3.21300   0
3.21400   5.13E-04
3.21500   2.12E-03
3.21600   3.38E-03
3.21700   3.21E-03
3.21800   2.02E-03
3.21900   1.85E-03
3.22000   2.68E-03
3.22100   2.70E-03
3.22200   1.38E-03
3.22300   1.17E-03
3.22400   3.93E-03
3.22500   5.42E-03
3.22600   4.08E-03
3.22700   2.46E-03
3.22800   2.54E-03
3.22900   2.30E-03
3.23000   1.59E-04
3.23100   4.94E-04
3.23200   1.91E-03
3.23300   3.21E-03
3.23400   2.79E-03
3.23500   9.18E-04
3.23600   0.0005
3.23700   1.11E-03
3.23800   1.96E-03
3.23900   2.34E-03
3.24000   1.38E-03
3.24100   5.43E-04
3.24200   1.11E-04
3.24300   0
3.24400   0
3.24500   8.86E-05
3.24600   1.74E-03
3.24700   2.64E-03
3.24800   2.99E-03
3.24900   1.35E-03
3.25000   0
3.25100   0
3.25200   2.75E-03
3.25300   2.53E-03
3.25400   2.67E-03
3.25500   3.78E-03
3.25600   4.50E-03
3.25700   4.62E-03
3.25800   0.0046
3.25900   3.65E-03
3.26000   2.87E-03
3.26100   3.58E-03
3.26200   0.0045
3.26300   4.08E-03
3.26400   3.14E-03
3.26500   3.07E-03
3.26600   3.95E-03
3.26700   4.09E-03
3.26800   2.87E-03
3.26900   1.84E-03
3.27000   2.07E-03
3.27100   1.89E-03
3.27200   0.00185
3.27300   3.00E-03
3.27400   3.25E-03
3.27500   2.93E-03
3.27600   2.70E-03
3.27700   2.02E-03
3.27800   1.56E-03
3.27900   2.33E-03
3.28000   2.74E-03
3.28100   2.27E-03
3.28200   2.97E-03
3.28300   3.15E-03
3.28400   2.31E-03
3.28500   1.18E-03
3.28600   1.12E-03
3.28700   2.82E-03
3.28800   3.79E-03
3.28900   2.69E-03
3.29000   1.51E-03
3.29100   1.32E-03
3.29200   7.67E-04
3.29300   0
3.29400   8.18E-04
3.29500   1.01E-03
3.29600   2.05E-03
3.29700   4.54E-03
3.29800   4.91E-03
3.29900   3.43E-03
3.30000   2.69E-03
3.30100   0.0029189
3.30200   3.04E-03
3.30300   2.97E-03
3.30400   3.20E-03
3.30500   3.14E-03
3.30600   2.05E-03
3.30700   1.98E-03
3.30800   3.00E-03
3.30900   1.17E-03
3.31000   0
3.31100   0
3.31200   0
3.31300   0
3.31400   0
3.31500   0
3.31600   1.23E-04
3.31700   1.21E-03
3.31800   7.16E-04
3.31900   5.86E-04
3.32000   2.36E-03
3.32100   3.27E-03
3.32200   3.59E-03
3.32300   4.05E-03
3.32400   3.99E-03
3.32500   3.42E-03
3.32600   3.12E-03
3.32700   3.26E-03
3.32800   2.83E-03
3.32900   1.29E-03
3.33000   0
3.33100   0
3.33200   0
3.33300   5.50E-05
3.33400   3.40E-04
3.33500   1.20E-03
3.33600   2.76E-03
3.33700   4.09E-03
3.33800   3.99E-03
3.33900   2.85E-03
3.34000   3.83E-04
3.34100   0
3.34200   1.29E-03
3.34300   3.77E-03
3.34400   3.83E-03
3.34500   2.44E-03
3.34600   1.05E-03
3.34700   3.50E-04
3.34800   7.78E-04
3.34900   1.59E-03
3.35000   2.52E-03
3.35100   2.76E-03
3.35200   3.58E-03
3.35300   4.17E-03
3.35400   3.50E-03
3.35500   2.43E-03
3.35600   2.54E-03
3.35700   3.61E-03
3.35800   3.36E-03
3.35900   2.29E-03
3.36000   2.57E-04
3.36100   0
3.36200   1.02E-03
3.36300   2.95E-03
3.36400   3.58E-03
3.36500   3.14E-03
3.36600   2.36E-03
3.36700   1.70E-03
3.36800   1.22E-03
3.36900   1.38E-03
3.37000   2.16E-03
3.37100   3.12E-03
3.37200   2.83E-03
3.37300   1.08E-03
3.37400   0
3.37500   0
3.37600   1.99E-04
3.37700   9.63E-04
3.37800   9.49E-04
3.37900   1.34E-03
3.38000   1.52E-03
3.38100   1.17E-03
3.38200   1.40E-03
3.38300   2.87E-03
3.38400   3.26E-03
3.38500   2.79E-03
3.38600   1.89E-03
3.38700   1.42E-03
3.38800   1.72E-03
3.38900   2.06E-03
3.39000   1.59E-03
3.39100   1.82E-03
3.39200   2.69E-03
3.39300   2.84E-03
3.39400   2.41E-03
3.39500   2.13E-03
3.39600   1.79E-03
3.39700   0.0010239
3.39800   3.89E-04
3.39900   1.69E-03
3.40000   2.66E-03
3.40100   2.27E-03
3.40200   2.25E-03
3.40300   2.64E-03
3.40400   3.05E-03
3.40500   3.30E-03
3.40600   2.39E-03
3.40700   0.001317
3.40800   1.40E-03
3.40900   2.15E-03
3.41000   2.04E-03
3.41100   1.50E-03
3.41200   2.03E-03
3.41300   2.87E-03
3.41400   1.84E-03
3.41500   2.18E-03
3.41600   2.23E-03
3.41700   1.85E-03
3.41800   1.41E-03
3.41900   1.33E-03
3.42000   2.01E-03
3.42100   2.35E-03
3.42200   2.14E-03
3.42300   3.34E-03
3.42400   3.64E-03
3.42500   2.13E-03
3.42600   6.67E-04
3.42700   2.24E-03
3.42800   3.01E-03
3.42900   3.12E-03
3.43000   3.13E-03
3.43100   3.29E-03
3.43200   3.24E-03
3.43300   2.33E-03
3.43400   1.27E-03
3.43500   0
3.43600   7.36E-04
3.43700   2.32E-03
3.43800   2.55E-03
3.43900   6.39E-04
3.44000   0
3.44100   2.85E-04
3.44200   1.09E-03
3.44300   1.24E-03
3.44400   1.63E-03
3.44500   2.16E-03
3.44600   1.45E-03
3.44700   4.38E-04
3.44800   8.88E-04
3.44900   4.72E-04
3.45000   2.12E-04
3.45100   4.08E-04
3.45200   6.66E-04
3.45300   1.42E-03
3.45400   2.09E-03
3.45500   1.83E-03
3.45600   1.21E-03
3.45700   5.61E-04
3.45800   1.27E-04
3.45900   5.46E-04
3.46000   1.50E-03
3.46100   1.24E-03
3.46200   4.79E-04
3.46300   0
3.46400   0
3.46500   3.47E-04
3.46600   1.51E-03
3.46700   1.98E-03
3.46800   2.45E-03
3.46900   2.59E-03
3.47000   1.76E-03
3.47100   0
3.47200   5.78E-05
3.47300   1.54E-03
3.47400   2.11E-03
3.47500   1.40E-03
3.47600   4.00E-04
3.47700   1.35E-03
3.47800   2.89E-03
3.47900   3.45E-03
3.48000   2.81E-03
3.48100   1.73E-03
3.48200   1.72E-03
3.48300   0.0047282
3.48400   0.00505
3.48500   4.01E-03
3.48600   3.28E-03
3.48700   3.82E-03
3.48800   5.43E-03
3.48900   4.77E-03
3.49000   3.34E-03
3.49100   2.33E-03
3.49200   2.29E-03
3.49300   3.33E-03
3.49400   5.09E-03
3.49500   4.89E-03
3.49600   2.83E-03
3.49700   1.23E-03
3.49800   1.16E-03
3.49900   2.12E-03
3.50000   3.46E-03
3.50100   4.20E-03
3.50200   3.96E-03
3.50300   2.67E-03
3.50400   6.51E-04
3.50500   0
3.50600   0
3.50700   0
3.50800   1.18E-03
3.50900   3.71E-03
3.51000   5.74E-03
3.51100   3.93E-03
3.51200   2.69E-03
3.51300   2.65E-03
3.51400   3.07E-03
3.51500   2.55E-03
3.51600   3.32E-03
3.51700   3.75E-03
3.51800   2.73E-03
3.51900   1.65E-03
3.52000   2.09E-03
3.52100   1.57E-03
3.52200   0
3.52300   0
3.52400   8.07E-04
3.52500   2.36E-03
3.52600   1.76E-03
3.52700   1.55E-03
3.52800   1.85E-03
3.52900   2.08E-03
3.53000   2.24E-03
3.53100   3.93E-03
3.53200   4.35E-03
3.53300   3.33E-03
3.53400   2.11E-03
3.53500   1.72E-03
3.53600   2.68E-03
3.53700   3.09E-03
3.53800   3.01E-03
3.53900   2.99E-03
3.54000   3.26E-03
3.54100   3.34E-03
3.54200   2.54E-03
3.54300   1.18E-03
3.54400   0
3.54500   0
3.54600   8.77E-04
3.54700   1.86E-03
3.54800   1.69E-03
3.54900   1.63E-03
3.55000   2.72E-03
3.55100   3.67E-03
3.55200   2.70E-03
3.55300   2.15E-03
3.55400   2.23E-03
3.55500   2.55E-03
3.55600   1.96E-03
3.55700   9.19E-04
3.55800   1.03E-03
3.55900   2.26E-03
3.56000   3.67E-03
3.56100   1.90E-03
3.56200   3.32E-04
3.56300   4.72E-04
3.56400   2.31E-03
3.56500   3.81E-03
3.56600   2.57E-03
3.56700   1.58E-03
3.56800   2.01E-03
3.56900   4.10E-03
3.57000   4.53E-03
3.57100   3.14E-03
3.57200   2.11E-03
3.57300   1.82E-03
3.57400   2.07E-03
3.57500   3.37E-03
3.57600   4.08E-03
3.57700   4.55E-03
3.57800   4.68E-03
3.57900   3.47E-03
3.58000   2.47E-03
3.58100   2.70E-03
3.58200   3.64E-03
3.58300   4.42E-03
3.58400   3.92E-03
3.58500   2.39E-03
3.58600   1.13E-03
3.58700   8.17E-04
3.58800   1.90E-03
3.58900   3.20E-03
3.59000   3.29E-03
3.59100   2.89E-03
3.59200   3.09E-03
3.59300   5.03E-03
3.59400   4.45E-03
3.59500   2.68E-03
3.59600   8.17E-04
3.59700   6.24E-04
3.59800   1.65E-03
3.59900   2.49E-03
3.60000   2.74E-03
3.60100   2.20E-03
3.60200   1.82E-03
3.60300   1.78E-03
3.60400   2.55E-03
3.60500   4.26E-03
3.60600   5.42E-03
3.60700   3.63E-03
3.60800   1.30E-03
3.60900   4.05E-05
3.61000   2.30E-03
3.61100   3.58E-03
3.61200   3.17E-03
3.61300   2.51E-03
3.61400   3.97E-03
3.61500   4.11E-03
3.61600   2.61E-03
3.61700   7.33E-04
3.61800   0
3.61900   2.14E-04
3.62000   1.46E-03
3.62100   1.97E-03
3.62200   1.23E-03
3.62300   7.01E-04
3.62400   1.74E-03
3.62500   2.92E-03
3.62600   3.73E-03
3.62700   3.93E-03
3.62800   2.96E-03
3.62900   2.14E-03
3.63000   1.80E-03
3.63100   2.22E-03
3.63200   3.92E-03
3.63300   3.72E-03
3.63400   1.91E-03
3.63500   0
3.63600   0
3.63700   0
3.63800   9.08E-04
3.63900   1.89E-03
3.64000   1.86E-03
3.64100   1.75E-03
3.64200   1.83E-03
3.64300   2.36E-03
3.64400   2.81E-03
3.64500   2.43E-03
3.64600   1.78E-03
3.64700   1.34E-03
3.64800   2.81E-03
3.64900   3.77E-03
3.65000   3.88E-03
3.65100   2.86E-03
3.65200   1.78E-03
3.65300   1.16E-03
3.65400   1.32E-03
3.65500   2.46E-03
3.65600   2.91E-03
3.65700   2.35E-03
3.65800   1.93E-03
3.65900   2.56E-03
3.66000   2.97E-03
3.66100   1.38E-03
3.66200   0
3.66300   3.48E-04
3.66400   2.06E-03
3.66500   1.75E-03
3.66600   4.65E-04
3.66700   0
3.66800   1.36E-03
3.66900   4.16E-03
3.67000   6.32E-03
3.67100   5.65E-03
3.67200   2.78E-03
3.67300   1.29E-03
3.67400   1.52E-03
3.67500   3.78E-03
3.67600   4.44E-03
3.67700   3.67E-03
3.67800   2.43E-03
3.67900   4.02E-03
3.68000   5.49E-03
3.68100   5.26E-03
3.68200   3.18E-03
3.68300   1.26E-03
3.68400   1.11E-03
3.68500   1.50E-03
3.68600   1.81E-03
3.68700   8.14E-04
3.68800   0
3.68900   0
3.69000   1.70E-04
3.69100   1.79E-03
3.69200   2.01E-03
3.69300   1.34E-03
3.69400   8.60E-04
3.69500   1.89E-03
3.69600   2.70E-03
3.69700   3.11E-03
3.69800   3.55E-03
3.69900   3.93E-03
3.70000   3.73E-03
3.70100   2.80E-03
3.70200   4.19E-03
3.70300   5.26E-03
3.70400   5.71E-03
3.70500   5.05E-03
3.70600   4.19E-03
3.70700   3.14E-03
3.70800   2.02E-03
3.70900   1.25E-03
3.71000   1.39E-03
3.71100   1.86E-03
3.71200   2.46E-03
3.71300   2.60E-03
3.71400   3.50E-03
3.71500   4.87E-03
3.71600   6.50E-03
3.71700   7.90E-03
3.71800   9.07E-03
3.71900   9.84E-03
3.72000   9.40E-03
3.72100   8.78E-03
3.72200   7.15E-03
3.72300   3.98E-03
3.72400   2.38E-03
3.72500   2.64E-03
3.72600   3.42E-03
3.72700   1.65E-03
3.72800   0.00135
3.72900   1.38E-03
3.73000   1.46E-03
3.73100   1.68E-03
3.73200   2.79E-03
3.73300   4.29E-03
3.73400   5.58E-03
3.73500   4.97E-03
3.73600   3.89E-03
3.73700   2.77E-03
3.73800   3.63E-03
3.73900   5.19E-03
3.74000   6.07E-03
3.74100   4.39E-03
3.74200   3.13E-03
3.74300   3.31E-03
3.74400   4.84E-03
3.74500   4.73E-03
3.74600   4.77E-03
3.74700   4.66E-03
3.74800   3.99E-03
3.74900   3.40E-03
3.75000   2.63E-03
3.75100   0.0017
3.75200   0.0017
3.75300   2.68E-03
3.75400   4.24E-03
3.75500   6.01E-03
3.75600   7.01E-03
3.75700   7.14E-03
3.75800   6.27E-03
3.75900   3.97E-03
3.76000   1.48E-03
3.76100   0
3.76200   0
3.76300   2.42E-04
3.76400   2.34E-03
3.76500   3.58E-03
3.76600   0.00365
3.76700   3.82E-03
3.76800   4.18E-03
3.76900   4.92E-03
3.77000   4.72E-03
3.77100   3.68E-03
3.77200   1.50E-03
3.77300   1.39E-03
3.77400   2.00E-03
3.77500   3.09E-03
3.77600   2.68E-03
3.77700   2.70E-03
3.77800   3.30E-03
3.77900   5.51E-03
3.78000   6.77E-03
3.78100   6.78E-03
3.78200   4.58E-03
3.78300   2.85E-03
3.78400   2.34E-03
3.78500   3.39E-03
3.78600   3.74E-03
3.78700   2.82E-03
3.78800   8.47E-04
3.78900   0
3.79000   0
3.79100   0
3.79200   2.75E-03
3.79300   3.89E-03
3.79400   4.06E-03
3.79500   3.30E-03
3.79600   3.93E-03
3.79700   4.47E-03
3.79800   4.83E-03
3.79900   5.38E-03
3.80000   5.71E-03
3.80100   5.59E-03
3.80200   4.00E-03
3.80300   0.0022579
3.80400   1.21E-03
3.80500   2.18E-03
3.80600   2.72E-03
3.80700   2.96E-03
3.80800   2.86E-03
3.80900   4.16E-03
3.81000   4.92E-03
3.81100   4.90E-03
3.81200   2.73E-03
3.81300   2.02E-03
3.81400   2.37E-03
3.81500   2.58E-03
3.81600   2.33E-03
3.81700   1.96E-03
3.81800   1.99E-03
3.81900   2.03E-03
3.82000   2.49E-03
3.82100   3.99E-03
3.82200   4.62E-03
3.82300   5.04E-03
3.82400   5.42E-03
3.82500   4.21E-03
3.82600   2.92E-03
3.82700   1.72E-03
3.82800   2.81E-03
3.82900   3.51E-03
3.83000   3.74E-03
3.83100   2.62E-03
3.83200   1.02E-03
3.83300   0
3.83400   2.00E-05
3.83500   1.37E-03
3.83600   2.66E-03
3.83700   1.88E-03
3.83800   1.86E-03
3.83900   2.32E-03
3.84000   3.27E-03
3.84100   4.14E-03
3.84200   4.47E-03
3.84300   3.45E-03
3.84400   1.29E-03
3.84500   0
3.84600   4.12E-04
3.84700   7.29E-04
3.84800   1.64E-03
3.84900   3.67E-03
3.85000   5.81E-03
3.85100   6.50E-03
3.85200   5.02E-03
3.85300   4.75E-03
3.85400   4.24E-03
3.85500   3.30E-03
3.85600   2.10E-03
3.85700   1.34E-03
3.85800   1.11E-03
3.85900   2.97E-03
3.86000   4.10E-03
3.86100   4.40E-03
3.86200   2.53E-03
3.86300   2.07E-03
3.86400   3.03E-03
3.86500   5.10E-03
3.86600   6.45E-03
3.86700   7.06E-03
3.86800   5.25E-03
3.86900   4.29E-03
3.87000   4.11E-03
3.87100   4.48E-03
3.87200   5.09E-03
3.87300   5.91E-03
3.87400   6.24E-03
3.87500   5.81E-03
3.87600   4.75E-03
3.87700   0.0046471
3.87800   4.53E-03
3.87900   4.36E-03
3.88000   2.90E-03
3.88100   2.37E-03
3.88200   2.73E-03
3.88300   4.85E-03
3.88400   5.23E-03
3.88500   3.91E-03
3.88600   3.01E-03
3.88700   2.90E-03
3.88800   3.63E-03
3.88900   0.00365
3.89000   3.59E-03
3.89100   3.46E-03
3.89200   2.48E-03
3.89300   2.00E-03
3.89400   2.23E-03
3.89500   3.79E-03
3.89600   4.31E-03
3.89700   3.09E-03
3.89800   2.60E-03
3.89900   2.59E-03
3.90000   3.25E-03
3.90100   2.52E-03
3.90200   2.09E-03
3.90300   2.85E-03
3.90400   4.15E-03
3.90500   5.39E-03
3.90600   6.08E-03
3.90700   6.03E-03
3.90800   5.58E-03
3.90900   4.60E-03
3.91000   3.89E-03
3.91100   3.67E-03
3.91200   5.31E-03
3.91300   5.44E-03
3.91400   4.50E-03
3.91500   1.70E-03
3.91600   1.42E-03
3.91700   2.96E-03
3.91800   3.29E-03
3.91900   2.58E-03
3.92000   8.54E-04
3.92100   0
3.92200   0
3.92300   0
3.92400   0
3.92500   1.32E-03
3.92600   2.52E-03
3.92700   2.86E-03
3.92800   3.03E-03
3.92900   3.32E-03
3.93000   2.29E-03
3.93100   8.49E-04
3.93200   0
3.93300   1.94E-04
3.93400   1.52E-03
3.93500   2.91E-03
3.93600   3.64E-03
3.93700   3.80E-03
3.93800   2.04E-03
3.93900   3.10E-04
3.94000   0
3.94100   0
3.94200   0
3.94300   0
3.94400   5.53E-04
3.94500   1.01E-03
3.94600   8.14E-04
3.94700   4.27E-04
3.94800   2.12E-04
3.94900   2.10E-03
3.95000   3.48E-03
3.95100   4.44E-03
3.95200   5.15E-03
3.95300   5.67E-03
3.95400   5.96E-03
3.95500   5.69E-03
3.95600   5.30E-03
3.95700   4.83E-03
3.95800   3.71E-03
3.95900   2.55E-03
3.96000   2.23E-03
3.96100   2.91E-03
3.96200   4.21E-03
3.96300   4.46E-03
3.96400   3.51E-03
3.96500   1.15E-03
3.96600   0
3.96700   0
3.96800   2.01E-03
3.96900   2.57E-03
3.97000   2.90E-03
3.97100   4.68E-03
3.97200   6.47E-03
3.97300   8.22E-03
3.97400   6.29E-03
3.97500   4.85E-03
3.97600   4.06E-03
3.97700   2.97E-03
3.97800   1.81E-03
3.97900   5.79E-04
3.98000   2.52E-05
3.98100   0
3.98200   3.59E-04
3.98300   6.49E-04
3.98400   7.44E-04
3.98500   1.52E-03
3.98600   2.40E-03
3.98700   3.41E-03
3.98800   3.01E-03
3.98900   2.23E-03
3.99000   1.82E-03
3.99100   1.89E-03
3.99200   2.29E-03
3.99300   3.04E-03
3.99400   3.54E-03
3.99500   3.63E-03
3.99600   2.36E-03
3.99700   1.06E-03
3.99800   1.12E-03
3.99900   1.30E-03
4.00000   0.00155
4.00100   1.80E-03
4.00200   2.70E-03
4.00300   4.57E-03
4.00400   5.47E-03
4.00500   5.79E-03
4.00600   4.73E-03
4.00700   3.42E-03
4.00800   1.92E-03
4.00900   2.14E-03
4.01000   2.52E-03
4.01100   3.11E-03
4.01200   3.35E-03
4.01300   3.42E-03
4.01400   3.23E-03
4.01500   2.66E-03
4.01600   1.76E-03
4.01700   1.67E-03
4.01800   1.98E-03
4.01900   3.00E-03
4.02000   4.22E-03
4.02100   5.43E-03
4.02200   5.74E-03
4.02300   5.67E-03
4.02400   5.17E-03
4.02500   2.78E-03
4.02600   3.66E-04
4.02700   0
4.02800   0
4.02900   0.0019805
4.03000   1.91E-03
4.03100   1.82E-03
4.03200   1.72E-03
4.03300   2.48E-03
4.03400   3.46E-03
4.03500   3.98E-03
4.03600   3.86E-03
4.03700   3.06E-03
4.03800   2.56E-03
4.03900   2.30E-03
4.04000   2.76E-03
4.04100   3.42E-03
4.04200   4.22E-03
4.04300   4.49E-03
4.04400   4.96E-03
4.04500   5.91E-03
4.04600   6.12E-03
4.04700   5.89E-03
4.04800   3.87E-03
4.04900   2.80E-03
4.05000   3.05E-03
4.05100   2.86E-03
4.05200   2.55E-03
4.05300   2.18E-03
4.05400   1.73E-03
4.05500   1.18E-03
4.05600   5.83E-04
4.05700   5.23E-04
4.05800   2.59E-03
4.05900   3.64E-03
4.06000   3.88E-03
4.06100   2.49E-03
4.06200   1.59E-03
4.06300   2.50E-03
4.06400   3.03E-03
4.06500   3.34E-03
4.06600   1.46E-03
4.06700   0
4.06800   0
4.06900   0
4.07000   1.19E-03
4.07100   2.85E-03
4.07200   4.26E-03
4.07300   5.16E-03
4.07400   4.77E-03
4.07500   3.79E-03
4.07600   3.43E-03
4.07700   3.32E-03
4.07800   3.65E-03
4.07900   3.21E-03
4.08000   2.45E-03
4.08100   2.54E-03
4.08200   3.17E-03
4.08300   4.73E-03
4.08400   4.32E-03
4.08500   3.04E-03
4.08600   1.34E-03
4.08700   7.83E-04
4.08800   2.25E-03
4.08900   3.63E-03
4.09000   4.93E-03
4.09100   4.10E-03
4.09200   3.24E-03
4.09300   2.34E-03
4.09400   3.01E-03
4.09500   4.44E-03
4.09600   5.96E-03
4.09700   6.54E-03
4.09800   5.12E-03
4.09900   3.53E-03
4.10000   1.87E-03
4.10100   1.57E-03
4.10200   1.43E-03
4.10300   1.55E-03
4.10400   2.38E-03
4.10500   3.68E-03
4.10600   4.77E-03
4.10700   5.51E-03
4.10800   5.13E-03
4.10900   4.93E-03
4.11000   4.90E-03
4.11100   3.72E-03
4.11200   2.20E-03
4.11300   1.75E-05
4.11400   0
4.11500   0
4.11600   1.20E-04
4.11700   5.59E-04
4.11800   1.30E-03
4.11900   2.53E-03
4.12000   4.56E-03
4.12100   5.00E-03
4.12200   4.70E-03
4.12300   3.42E-03
4.12400   2.28E-03
4.12500   1.52E-03
4.12600   1.42E-03
4.12700   1.81E-03
4.12800   2.37E-03
4.12900   2.98E-03
4.13000   3.72E-03
4.13100   3.45E-03
4.13200   2.07E-03
4.13300   1.03E-03
4.13400   2.47E-04
4.13500   1.86E-03
4.13600   3.45E-03
4.13700   5.03E-03
4.13800   5.21E-03
4.13900   4.59E-03
4.14000   3.47E-03
4.14100   2.47E-03
4.14200   2.09E-03
4.14300   2.42E-03
4.14400   3.47E-03
4.14500   2.81E-03
4.14600   1.72E-03
4.14700   1.26E-03
4.14800   1.90E-03
4.14900   4.66E-03
4.15000   5.50E-03
4.15100   5.18E-03
4.15200   2.75E-03
4.15300   3.41E-04
4.15400   0
4.15500   0
4.15600   2.95E-03
4.15700   4.72E-03
4.15800   5.99E-03
4.15900   4.59E-03
4.16000   3.59E-03
4.16100   3.73E-03
4.16200   3.54E-03
4.16300   3.05E-03
4.16400   3.14E-03
4.16500   3.35E-03
4.16600   3.41E-03
4.16700   3.41E-03
4.16800   3.30E-03
4.16900   2.75E-03
4.17000   1.92E-03
4.17100   1.65E-03
4.17200   1.56E-03
4.17300   2.11E-03
4.17400   2.66E-03
4.17500   3.20E-03
4.17600   3.20E-03
4.17700   2.88E-03
4.17800   3.41E-03
4.17900   3.94E-03
4.18000   3.85E-03
4.18100   3.61E-03
4.18200   3.12E-03
4.18300   2.39E-03
4.18400   1.54E-03
4.18500   1.04E-03
4.18600   8.36E-04
4.18700   2.09E-03
4.18800   3.01E-03
4.18900   3.41E-03
4.19000   3.24E-03
4.19100   2.76E-03
4.19200   2.32E-03
4.19300   1.96E-03
4.19400   2.08E-03
4.19500   2.21E-03
4.19600   2.38E-03
4.19700   0.00245
4.19800   0.00245
4.19900   2.35E-03
4.20000   2.22E-03
4.20100   1.82E-03
4.20200   1.41E-03
4.20300   9.52E-04
4.20400   6.09E-04
4.20500   3.55E-04
4.20600   2.78E-04
4.20700   2.50E-04
4.20800   2.79E-04
4.20900   2.72E-04
4.21000   1.59E-04
4.21100   5.99E-05
4.21200   0
4.21300   8.80E-05
4.21400   2.85E-04
4.21500   5.60E-04
4.21600   7.96E-04
4.21700   7.68E-04
4.21800   6.67E-04
4.21900   4.42E-04
4.22000   3.17E-04
4.22100   2.61E-04
4.22200   3.41E-04
4.22300   4.45E-04
4.22400   2.49E-04
4.22500   1.48E-04
4.22600   3.44E-04
4.22700   1.10E-03
4.22800   2.53E-03
4.22900   3.51E-03
4.23000   4.26E-03
4.23100   4.30E-03
4.23200   4.22E-03
4.23300   3.95E-03
4.23400   3.68E-03
4.23500   3.46E-03
4.23600   2.49E-03
4.23700   7.90E-04
4.23800   0
4.23900   0
4.24000   0
4.24100   0
4.24200   0
4.24300   0
4.24400   0
4.24500   0
4.24600   0
4.24700   0
4.24800   8.29E-05
4.24900   1.25E-04
4.25000   0.00015
4.25100   0.00015
4.25200   2.00E-04
4.25300   3.66E-04
4.25400   5.45E-04
4.25500   7.38E-04
4.25600   8.38E-04
4.25700   8.93E-04
4.25800   8.52E-04
4.25900   8.08E-04
4.26000   9.46E-04
4.26100   1.08E-03
4.26200   1.22E-03
4.26300   1.39E-03
4.26400   1.61E-03
4.26500   1.85E-03
4.26600   2.10E-03
4.26700   2.30E-03
4.26800   2.49E-03
4.26900   2.74E-03
4.27000   3.11E-03
4.27100   4.21E-03
4.27200   5.74E-03
4.27300   8.21E-03
4.27400   8.32E-03
4.27500   6.05E-03
4.27600   5.08E-03
4.27700   4.75E-03
4.27800   3.46E-03
4.27900   1.99E-03
4.28000   6.22E-04
4.28100   0
4.28200   5.60E-04
4.28300   1.73E-03
4.28400   3.42E-03
4.28500   4.15E-03
4.28600   3.96E-03
4.28700   3.37E-03
4.28800   2.58E-03
4.28900   4.36E-03
4.29000   6.64E-03
4.29100   7.92E-03
4.29200   8.85E-03
4.29300   7.84E-03
4.29400   6.94E-03
4.29500   6.26E-03
4.29600   5.68E-03
4.29700   5.22E-03
4.29800   4.80E-03
4.29900   4.39E-03
4.30000   3.42E-03
4.30100   2.29E-03
4.30200   3.76E-04
4.30300   0
4.30400   0
4.30500   0
4.30600   0
4.30700   0
4.30800   0
4.30900   0
4.31000   0
4.31100   0
4.31200   0
4.31300   0
4.31400   0
4.31500   0
4.31600   0
4.31700   0
4.31800   0
4.31900   0
4.32000   0
4.32100   0
4.32200   0
4.32300   0
4.32400   0
4.32500   0
4.32600   0
4.32700   0
4.32800   0
4.32900   0
4.33000   0
4.33100   0
4.33200   4.45E-04
4.33300   1.14E-03
4.33400   1.08E-03
4.33500   9.62E-04
4.33600   7.23E-04
4.33700   0.0006
4.33800   0.0006
4.33900   5.20E-04
4.34000   3.87E-04
4.34100   1.97E-04
4.34200   0
4.34300   1.94E-04
4.34400   4.86E-04
4.34500   1.53E-03
4.34600   2.61E-03
4.34700   3.59E-03
4.34800   4.22E-03
4.34900   3.16E-03
4.35000   2.32E-03
4.35100   2.03E-03
4.35200   2.18E-03
4.35300   3.02E-03
4.35400   3.83E-03
4.35500   4.59E-03
4.35600   4.85E-03
4.35700   4.77E-03
4.35800   4.09E-03
4.35900   3.14E-03
4.36000   2.15E-03
4.36100   1.15E-03
4.36200   6.71E-04
4.36300   2.51E-04
4.36400   4.60E-04
4.36500   7.19E-04
4.36600   1.45E-03
4.36700   2.21E-03
4.36800   3.08E-03
4.36900   3.74E-03
4.37000   3.87E-03
4.37100   3.80E-03
4.37200   3.41E-03
4.37300   3.14E-03
4.37400   3.01E-03
4.37500   2.75E-03
4.37600   2.38E-03
4.37700   1.99E-03
4.37800   1.57E-03
4.37900   1.24E-03
4.38000   9.58E-04
4.38100   1.21E-03
4.38200   1.60E-03
4.38300   2.75E-03
4.38400   4.00E-03
4.38500   3.50E-03
4.38600   2.95E-03
4.38700   2.84E-03
4.38800   2.84E-03
4.38900   3.64E-03
4.39000   4.25E-03
4.39100   3.96E-03
4.39200   3.46E-03
4.39300   2.35E-03
4.39400   1.41E-03
4.39500   8.10E-04
4.39600   7.06E-04
4.39700   1.35E-03
4.39800   1.90E-03
4.39900   2.34E-03
4.40000   0.00255
4.40100   0.00255
4.40200   2.47E-03
4.40300   2.34E-03
4.40400   2.22E-03
4.40500   2.09E-03
4.40600   2.34E-03
4.40700   2.76E-03
4.40800   3.17E-03
4.40900   3.58E-03
4.41000   3.48E-03
4.41100   3.27E-03
4.41200   3.00E-03
4.41300   2.72E-03
4.41400   2.84E-03
4.41500   3.00E-03
4.41600   2.09E-03
4.41700   1.16E-03
4.41800   1.62E-04
4.41900   0
4.42000   0
4.42100   0
4.42200   0
4.42300   0
4.42400   0
4.42500   0
4.42600   1.05E-04
4.42700   2.23E-04
4.42800   0
4.42900   0
4.43000   0
4.43100   0
4.43200   8.60E-04
4.43300   2.14E-03
4.43400   3.18E-03
4.43500   3.61E-03
4.43600   3.15E-03
4.43700   2.75E-03
4.43800   2.42E-03
4.43900   2.36E-03
4.44000   2.59E-03
4.44100   3.18E-03
4.44200   4.15E-03
4.44300   4.83E-03
4.44400   5.26E-03
4.44500   4.85E-03
4.44600   3.76E-03
4.44700   3.17E-03
4.44800   2.94E-03
4.44900   3.05E-03
4.45000   3.38E-03
4.45100   3.55E-03
4.45200   3.62E-03
4.45300   3.31E-03
4.45400   2.78E-03
4.45500   2.82E-03
4.45600   3.14E-03
4.45700   3.52E-03
4.45800   3.92E-03
4.45900   3.67E-03
4.46000   3.12E-03
4.46100   2.88E-03
4.46200   2.78E-03
4.46300   2.73E-03
4.46400   2.71E-03
4.46500   2.22E-03
4.46600   1.54E-03
4.46700   1.42E-03
4.46800   0.0015224
4.46900   1.71E-03
4.47000   1.94E-03
4.47100   1.75E-03
4.47200   1.40E-03
4.47300   1.81E-03
4.47400   2.51E-03
4.47500   3.35E-03
4.47600   4.25E-03
4.47700   4.30E-03
4.47800   4.03E-03
4.47900   3.56E-03
4.48000   3.01E-03
4.48100   2.35E-03
4.48200   1.66E-03
4.48300   1.99E-03
4.48400   2.76E-03
4.48500   4.17E-03
4.48600   5.86E-03
4.48700   5.65E-03
4.48800   4.56E-03
4.48900   3.62E-03
4.49000   2.75E-03
4.49100   3.00E-03
4.49200   3.84E-03
4.49300   3.93E-03
4.49400   3.58E-03
4.49500   3.22E-03
4.49600   2.85E-03
4.49700   2.88E-03
4.49800   3.17E-03
4.49900   3.73E-03
4.50000   4.47E-03
4.50100   4.94E-03
4.50200   5.18E-03
4.50300   5.05E-03
4.50400   4.59E-03
4.50500   4.12E-03
4.50600   3.65E-03
4.50700   3.29E-03
4.50800   3.04E-03
4.50900   2.81E-03
4.51000   2.62E-03
4.51100   2.39E-03
4.51200   2.12E-03
4.51300   1.99E-03
4.51400   2.08E-03
4.51500   1.97E-03
4.51600   1.43E-03
4.51700   1.01E-03
4.51800   8.92E-04
4.51900   1.07E-03
4.52000   2.17E-03
4.52100   0.0031099
4.52200   3.40E-03
4.52300   3.55E-03
4.52400   2.94E-03
4.52500   2.40E-03
4.52600   2.43E-03
4.52700   2.46E-03
4.52800   2.55E-03
4.52900   2.65E-03
4.53000   2.45E-03
4.53100   2.26E-03
4.53200   2.16E-03
4.53300   2.06E-03
4.53400   2.25E-03
4.53500   2.47E-03
4.53600   2.11E-03
4.53700   1.64E-03
4.53800   7.78E-04
4.53900   0
4.54000   0
4.54100   9.72E-05
4.54200   6.90E-04
4.54300   1.42E-03
4.54400   1.71E-03
4.54500   1.74E-03
4.54600   1.49E-03
4.54700   1.00E-03
4.54800   1.07E-03
4.54900   1.75E-03
4.55000   2.26E-03
4.55100   2.52E-03
4.55200   2.61E-03
4.55300   2.34E-03
4.55400   2.01E-03
4.55500   1.48E-03
4.55600   9.81E-04
4.55700   6.20E-04
4.55800   4.27E-04
4.55900   1.53E-03
4.56000   2.59E-03
4.56100   2.45E-03
4.56200   2.31E-03
4.56300   1.84E-03
4.56400   1.36E-03
4.56500   9.02E-04
4.56600   4.46E-04
4.56700   0
4.56800   0
4.56900   0
4.57000   7.60E-04
4.57100   1.62E-03
4.57200   2.45E-03
4.57300   2.88E-03
4.57400   2.92E-03
4.57500   2.98E-03
4.57600   3.05E-03
4.57700   2.85E-03
4.57800   2.11E-03
4.57900   1.36E-03
4.58000   6.00E-04
4.58100   6.37E-06
4.58200   3.87E-04
4.58300   7.82E-04
4.58400   1.45E-03
4.58500   2.11E-03
4.58600   2.60E-03
4.58700   3.08E-03
4.58800   2.73E-03
4.58900   2.23E-03
4.59000   1.98E-03
4.59100   1.81E-03
4.59200   2.05E-03
4.59300   2.52E-03
4.59400   2.44E-03
4.59500   1.85E-03
4.59600   1.25E-03
4.59700   6.31E-04
4.59800   4.90E-04
4.59900   1.46E-03
4.60000   2.30E-03
4.60100   2.59E-03
4.60200   2.82E-03
4.60300   2.37E-03
4.60400   1.92E-03
4.60500   1.56E-03
4.60600   1.21E-03
4.60700   1.36E-03
4.60800   1.62E-03
4.60900   1.87E-03
4.61000   2.10E-03
4.61100   2.10E-03
4.61200   1.94E-03
4.61300   2.06E-03
4.61400   2.53E-03
4.61500   2.93E-03
4.61600   3.19E-03
4.61700   3.39E-03
4.61800   3.32E-03
4.61900   3.22E-03
4.62000   2.73E-03
4.62100   2.24E-03
4.62200   2.03E-03
4.62300   1.84E-03
4.62400   2.17E-03
4.62500   2.64E-03
4.62600   3.44E-03
4.62700   4.42E-03
4.62800   4.60E-03
4.62900   4.02E-03
4.63000   3.37E-03
4.63100   2.63E-03
4.63200   2.25E-03
4.63300   3.14E-03
4.63400   3.97E-03
4.63500   4.23E-03
4.63600   4.48E-03
4.63700   3.94E-03
4.63800   3.33E-03
4.63900   2.96E-03
4.64000   2.66E-03
4.64100   2.87E-03
4.64200   3.38E-03
4.64300   3.63E-03
4.64400   3.58E-03
4.64500   3.31E-03
4.64600   2.54E-03
4.64700   1.86E-03
4.64800   1.63E-03
4.64900   1.40E-03
4.65000   2.07E-03
4.65100   2.74E-03
4.65200   3.26E-03
4.65300   3.74E-03
4.65400   3.43E-03
4.65500   2.74E-03
4.65600   2.14E-03
4.65700   1.64E-03
4.65800   1.52E-03
4.65900   2.16E-03
4.66000   2.79E-03
4.66100   3.32E-03
4.66200   3.85E-03
4.66300   3.46E-03
4.66400   3.07E-03
4.66500   2.51E-03
4.66600   1.91E-03
4.66700   1.98E-03
4.66800   2.42E-03
4.66900   3.05E-03
4.67000   3.89E-03
4.67100   4.43E-03
4.67200   4.18E-03
4.67300   3.95E-03
4.67400   3.90E-03
4.67500   3.85E-03
4.67600   3.93E-03
4.67700   4.03E-03
4.67800   3.58E-03
4.67900   2.94E-03
4.68000   2.69E-03
4.68100   2.76E-03
4.68200   2.78E-03
4.68300   2.74E-03
4.68400   2.58E-03
4.68500   1.80E-03
4.68600   1.03E-03
4.68700   6.05E-04
4.68800   1.95E-04
4.68900   5.71E-04
4.69000   1.19E-03
4.69100   2.03E-03
4.69200   3.05E-03
4.69300   3.74E-03
4.69400   3.86E-03
4.69500   3.98E-03
4.69600   4.16E-03
4.69700   4.34E-03
4.69800   4.09E-03
4.69900   3.82E-03
4.70000   3.05E-03
4.70100   2.12E-03
4.70200   1.53E-03
4.70300   1.21E-03
4.70400   1.22E-03
4.70500   1.90E-03
4.70600   2.53E-03
4.70700   2.80E-03
4.70800   3.07E-03
4.70900   2.79E-03
4.71000   2.46E-03
4.71100   2.32E-03
4.71200   2.27E-03
4.71300   2.53E-03
4.71400   3.14E-03
4.71500   3.63E-03
4.71600   3.77E-03
4.71700   3.89E-03
4.71800   3.24E-03
4.71900   2.58E-03
4.72000   3.07E-03
4.72100   3.86E-03
4.72200   4.82E-03
4.72300   5.92E-03
4.72400   6.07E-03
4.72500   4.35E-03
4.72600   2.66E-03
4.72700   1.30E-03
4.72800   0
4.72900   5.84E-04
4.73000   1.55E-03
4.73100   2.56E-03
4.73200   3.61E-03
4.73300   4.00E-03
4.73400   3.35E-03
4.73500   2.62E-03
4.73600   1.47E-03
4.73700   3.06E-04
4.73800   9.69E-04
4.73900   1.82E-03
4.74000   2.71E-03
4.74100   3.62E-03
4.74200   3.88E-03
4.74300   3.24E-03
4.74400   2.67E-03
4.74500   2.52E-03
4.74600   2.36E-03
4.74700   1.68E-03
4.74800   9.47E-04
4.74900   6.71E-04
4.75000   6.26E-04
4.75100   8.79E-04
4.75200   1.57E-03
4.75300   2.05E-03
4.75400   1.39E-03
4.75500   7.24E-04
4.75600   5.52E-04
4.75700   4.41E-04
4.75800   1.13E-03
4.75900   2.30E-03
4.76000   3.02E-03
4.76100   2.93E-03
4.76200   2.76E-03
4.76300   1.76E-03
4.76400   7.72E-04
4.76500   4.18E-04
4.76600   1.98E-04
4.76700   2.34E-04
4.76800   4.76E-04
4.76900   9.92E-04
4.77000   2.20E-03
4.77100   3.40E-03
4.77200   3.22E-03
4.77300   3.05E-03
4.77400   2.33E-03
4.77500   1.41E-03
4.77600   1.20E-03
4.77700   1.85E-03
4.77800   2.41E-03
4.77900   2.50E-03
4.78000   2.59E-03
4.78100   2.25E-03
4.78200   1.86E-03
4.78300   1.78E-03
4.78400   1.91E-03
4.78500   2.06E-03
4.78600   2.26E-03
4.78700   2.44E-03
4.78800   2.05E-03
4.78900   1.66E-03
4.79000   1.28E-03
4.79100   9.10E-04
4.79200   1.03E-03
4.79300   1.79E-03
4.79400   2.58E-03
4.79500   3.56E-03
4.79600   4.54E-03
4.79700   4.28E-03
4.79800   3.78E-03
4.79900   3.14E-03
4.80000   2.38E-03
4.80100   1.76E-03
4.80200   1.59E-03
4.80300   1.41E-03
4.80400   1.60E-03
4.80500   1.82E-03
4.80600   2.19E-03
4.80700   2.67E-03
4.80800   2.88E-03
4.80900   2.49E-03
4.81000   0.0021019
4.81100   1.99E-03
4.81200   1.88E-03
4.81300   2.22E-03
4.81400   2.76E-03
4.81500   2.86E-03
4.81600   2.19E-03
4.81700   1.53E-03
4.81800   1.01E-03
4.81900   4.93E-04
4.82000   4.59E-04
4.82100   6.10E-04
4.82200   9.32E-04
4.82300   1.51E-03
4.82400   2.03E-03
4.82500   1.73E-03
4.82600   1.43E-03
4.82700   9.98E-04
4.82800   5.26E-04
4.82900   7.03E-04
4.83000   1.80E-03
4.83100   2.89E-03
4.83200   3.96E-03
4.83300   5.03E-03
4.83400   5.48E-03
4.83500   5.71E-03
4.83600   5.68E-03
4.83700   5.28E-03
4.83800   4.88E-03
4.83900   4.65E-03
4.84000   4.41E-03
4.84100   3.93E-03
4.84200   3.35E-03
4.84300   2.84E-03
4.84400   2.44E-03
4.84500   2.06E-03
4.84600   2.38E-03
4.84700   2.70E-03
4.84800   2.64E-03
4.84900   2.40E-03
4.85000   0.00225
4.85100   0.00225
4.85200   0.00225
4.85300   2.31E-03
4.85400   2.38E-03
4.85500   2.05E-03
4.85600   1.50E-03
4.85700   1.40E-03
4.85800   2.50E-03
4.85900   3.60E-03
4.86000   4.24E-03
4.86100   4.83E-03
4.86200   4.81E-03
4.86300   4.28E-03
4.86400   3.88E-03
4.86500   4.03E-03
4.86600   4.17E-03
4.86700   4.25E-03
4.86800   4.32E-03
4.86900   4.19E-03
4.87000   3.83E-03
4.87100   3.49E-03
4.87200   3.39E-03
4.87300   3.28E-03
4.87400   3.29E-03
4.87500   3.36E-03
4.87600   3.34E-03
4.87700   3.15E-03
4.87800   2.96E-03
4.87900   2.57E-03
4.88000   2.17E-03
4.88100   1.98E-03
4.88200   1.93E-03
4.88300   2.04E-03
4.88400   2.80E-03
4.88500   3.55E-03
4.88600   3.41E-03
4.88700   3.06E-03
4.88800   2.34E-03
4.88900   1.10E-03
4.89000   0
4.89100   5.21E-04
4.89200   1.13E-03
4.89300   2.01E-03
4.89400   3.05E-03
4.89500   3.78E-03
4.89600   3.49E-03
4.89700   3.20E-03
4.89800   2.57E-03
4.89900   1.88E-03
4.90000   1.56E-03
4.90100   1.71E-03
4.90200   1.85E-03
4.90300   1.96E-03
4.90400   2.06E-03
4.90500   1.95E-03
4.90600   1.73E-03
4.90700   1.42E-03
4.90800   8.61E-04
4.90900   3.01E-04
4.91000   4.38E-04
4.91100   7.28E-04
4.91200   1.14E-03
4.91300   1.72E-03
4.91400   2.30E-03
4.91500   2.36E-03
4.91600   2.42E-03
4.91700   2.58E-03
4.91800   2.81E-03
4.91900   2.98E-03
4.92000   2.83E-03
4.92100   2.69E-03
4.92200   2.45E-03
4.92300   2.18E-03
4.92400   1.96E-03
4.92500   1.84E-03
4.92600   1.71E-03
4.92700   1.85E-03
4.92800   2.01E-03
4.92900   2.21E-03
4.93000   2.46E-03
4.93100   2.70E-03
4.93200   2.76E-03
4.93300   2.83E-03
4.93400   2.55E-03
4.93500   2.06E-03
4.93600   1.58E-03
4.93700   1.12E-03
4.93800   6.73E-04
4.93900   1.24E-03
4.94000   2.18E-03
4.94100   2.94E-03
4.94200   3.27E-03
4.94300   3.60E-03
4.94400   4.05E-03
4.94500   4.52E-03
4.94600   4.88E-03
4.94700   5.09E-03
4.94800   5.29E-03
4.94900   4.40E-03
4.95000   3.46E-03
4.95100   2.82E-03
4.95200   2.48E-03
4.95300   2.11E-03
4.95400   1.42E-03
4.95500   7.28E-04
4.95600   7.24E-05
4.95700   0
4.95800   0
4.95900   0
4.96000   0
4.96100   0
4.96200   0
4.96300   0
4.96400   0
4.96500   0
4.96600   0
4.96700   0
4.96800   4.41E-04
4.96900   1.27E-03
4.97000   2.10E-03
4.97100   2.33E-03
4.97200   2.43E-03
4.97300   2.63E-03
4.97400   3.02E-03
4.97500   3.40E-03
4.97600   4.10E-03
4.97700   4.85E-03
4.97800   5.20E-03
4.97900   4.93E-03
4.98000   4.67E-03
4.98100   0.00465
4.98200   0.00465
4.98300   4.50E-03
4.98400   4.16E-03
4.98500   3.82E-03
4.98600   3.38E-03
4.98700   2.94E-03
4.98800   2.80E-03
4.98900   3.02E-03
4.99000   3.25E-03
4.99100   2.54E-03
4.99200   1.82E-03
4.99300   1.12E-03
4.99400   4.35E-04
4.99500   0
4.99600   0
4.99700   0
4.99800   1.40E-04
4.99900   5.20E-04
5.00000   0.0009
5.00100   1.24E-03
5.00200   1.58E-03
5.00300   1.89E-03
5.00400   2.17E-03
5.00500   2.45E-03
5.00600   2.49E-03
5.00700   2.53E-03
5.00800   2.65E-03
5.00900   2.85E-03
5.01000   3.05E-03
5.01100   3.65E-03
5.01200   4.27E-03
5.01300   4.36E-03
5.01400   3.84E-03
5.01500   3.32E-03
5.01600   2.18E-03
5.01700   1.01E-03
5.01800   8.11E-04
5.01900   1.86E-03
5.02000   2.92E-03
5.02100   4.30E-03
5.02200   5.70E-03
5.02300   6.37E-03
5.02400   5.91E-03
5.02500   5.46E-03
5.02600   3.67E-03
5.02700   1.69E-03
5.02800   6.00E-04
5.02900   1.17E-03
5.03000   1.75E-03
5.03100   2.48E-03
5.03200   3.25E-03
5.03300   3.75E-03
5.03400   3.60E-03
5.03500   3.44E-03
5.03600   4.45E-03
5.03700   5.85E-03
5.03800   6.58E-03
5.03900   4.89E-03
5.04000   3.20E-03
5.04100   2.18E-03
5.04200   1.50E-03
5.04300   8.92E-04
5.04400   8.33E-04
5.04500   7.74E-04
5.04600   9.59E-04
5.04700   1.31E-03
5.04800   1.65E-03
5.04900   1.59E-03
5.05000   1.53E-03
5.05100   1.75E-03
5.05200   2.26E-03
5.05300   2.77E-03
5.05400   2.47E-03
5.05500   2.12E-03
5.05600   1.95E-03
5.05700   2.06E-03
5.05800   2.18E-03
5.05900   2.62E-03
5.06000   3.13E-03
5.06100   3.42E-03
5.06200   3.10E-03
5.06300   2.79E-03
5.06400   3.00E-03
5.06500   3.43E-03
5.06600   3.85E-03
5.06700   4.22E-03
5.06800   4.59E-03
5.06900   4.57E-03
5.07000   4.26E-03
5.07100   3.95E-03
5.07200   3.19E-03
5.07300   2.43E-03
5.07400   1.74E-03
5.07500   1.14E-03
5.07600   5.36E-04
5.07700   1.84E-04
5.07800   0
5.07900   4.03E-05
5.08000   1.44E-03
5.08100   2.83E-03
5.08200   2.76E-03
5.08300   2.07E-03
5.08400   1.51E-03
5.08500   2.03E-03
5.08600   2.55E-03
5.08700   2.85E-03
5.08800   2.95E-03
5.08900   3.04E-03
5.09000   2.31E-03
5.09100   1.51E-03
5.09200   0.001
5.09300   0.001
5.09400   0.001
5.09500   8.40E-04
5.09600   6.28E-04
5.09700   3.67E-04
5.09800   0
5.09900   0
5.10000   0
5.10100   0
5.10200   0
5.10300   0
5.10400   0
5.10500   5.21E-05
5.10600   3.40E-04
5.10700   6.27E-04
5.10800   1.09E-03
5.10900   1.60E-03
5.11000   2.09E-03
5.11100   2.40E-03
5.11200   2.70E-03
5.11300   2.77E-03
5.11400   2.62E-03
5.11500   2.46E-03
5.11600   2.64E-03
5.11700   2.85E-03
5.11800   2.84E-03
5.11900   2.28E-03
5.12000   1.73E-03
5.12100   1.95E-03
5.12200   2.54E-03
5.12300   3.10E-03
5.12400   3.18E-03
5.12500   3.26E-03
5.12600   2.91E-03
5.12700   1.97E-03
5.12800   1.04E-03
5.12900   1.33E-03
5.13000   1.94E-03
5.13100   2.48E-03
5.13200   2.69E-03
5.13300   2.90E-03
5.13400   3.18E-03
5.13500   3.52E-03
5.13600   0.0038635
5.13700   3.63E-03
5.13800   3.33E-03
5.13900   3.13E-03
5.14000   3.24E-03
5.14100   3.36E-03
5.14200   3.69E-03
5.14300   4.16E-03
5.14400   4.63E-03
5.14500   4.63E-03
5.14600   4.61E-03
5.14700   4.53E-03
5.14800   4.33E-03
5.14900   4.12E-03
5.15000   3.56E-03
5.15100   2.82E-03
5.15200   2.11E-03
5.15300   2.60E-03
5.15400   3.09E-03
5.15500   3.41E-03
5.15600   3.45E-03
5.15700   3.49E-03
5.15800   3.12E-03
5.15900   2.57E-03
5.16000   2.04E-03
5.16100   1.80E-03
5.16200   1.55E-03
5.16300   1.73E-03
5.16400   2.59E-03
5.16500   3.45E-03
5.16600   3.91E-03
5.16700   4.21E-03
5.16800   4.47E-03
5.16900   3.86E-03
5.17000   3.24E-03
5.17100   2.77E-03
5.17200   2.57E-03
5.17300   2.36E-03
5.17400   2.62E-03
5.17500   3.09E-03
5.17600   3.55E-03
5.17700   3.40E-03
5.17800   3.25E-03
5.17900   3.14E-03
5.18000   3.13E-03
5.18100   3.11E-03
5.18200   3.06E-03
5.18300   3.01E-03
5.18400   2.95E-03
5.18500   2.90E-03
5.18600   2.84E-03
5.18700   2.85E-03
5.18800   3.01E-03
5.18900   3.18E-03
5.19000   3.40E-03
5.19100   3.66E-03
5.19200   3.92E-03
5.19300   3.67E-03
5.19400   3.35E-03
5.19500   3.04E-03
5.19600   2.72E-03
5.19700   2.41E-03
5.19800   2.20E-03
5.19900   2.11E-03
5.20000   2.02E-03
5.20100   2.07E-03
5.20200   2.17E-03
5.20300   2.26E-03
5.20400   2.33E-03
5.20500   2.40E-03
5.20600   2.61E-03
5.20700   3.03E-03
5.20800   3.46E-03
5.20900   3.45E-03
5.21000   3.23E-03
5.21100   3.01E-03
5.21200   2.95E-03
5.21300   2.89E-03
5.21400   0.0027286
5.21500   2.21E-03
5.21600   1.70E-03
5.21700   1.50E-03
5.21800   1.59E-03
5.21900   1.68E-03
5.22000   1.58E-03
5.22100   1.44E-03
5.22200   1.31E-03
5.22300   1.48E-03
5.22400   1.64E-03
5.22500   1.96E-03
5.22600   2.56E-03
5.22700   3.16E-03
5.22800   3.30E-03
5.22900   3.14E-03
5.23000   2.97E-03
5.23100   3.65E-03
5.23200   4.46E-03
5.23300   5.10E-03
5.23400   4.73E-03
5.23500   4.37E-03
5.23600   3.88E-03
5.23700   3.21E-03
5.23800   2.53E-03
5.23900   1.63E-03
5.24000   6.12E-04
5.24100   0
5.24200   0
5.24300   3.69E-04
5.24400   7.21E-04
5.24500   5.39E-04
5.24600   3.57E-04
5.24700   2.35E-04
5.24800   1.99E-04
5.24900   1.62E-04
5.25000   5.43E-04
5.25100   1.14E-03
5.25200   1.74E-03
5.25300   2.03E-03
5.25400   2.28E-03
5.25500   2.57E-03
5.25600   3.08E-03
5.25700   3.58E-03
5.25800   3.89E-03
5.25900   3.88E-03
5.26000   3.86E-03
5.26100   3.60E-03
5.26200   3.18E-03
5.26300   2.77E-03
5.26400   3.11E-03
5.26500   3.60E-03
5.26600   4.07E-03
5.26700   4.28E-03
5.26800   4.50E-03
5.26900   4.50E-03
5.27000   3.97E-03
5.27100   3.45E-03
5.27200   2.85E-03
5.27300   2.19E-03
5.27400   1.52E-03
5.27500   0.001854
5.27600   2.54E-03
5.27700   3.22E-03
5.27800   3.40E-03
5.27900   3.57E-03
5.28000   3.63E-03
5.28100   3.24E-03
5.28200   2.84E-03
5.28300   2.76E-03
5.28400   3.19E-03
5.28500   3.62E-03
5.28600   3.76E-03
5.28700   3.69E-03
5.28800   3.61E-03
5.28900   3.02E-03
5.29000   2.29E-03
5.29100   1.55E-03
5.29200   2.01E-03
5.29300   2.48E-03
5.29400   2.89E-03
5.29500   3.13E-03
5.29600   3.36E-03
5.29700   3.26E-03
5.29800   2.66E-03
5.29900   2.05E-03
5.30000   1.44E-03
5.30100   8.14E-04
5.30200   1.91E-04
5.30300   8.06E-04
5.30400   1.78E-03
5.30500   2.76E-03
5.30600   2.10E-03
5.30700   1.37E-03
5.30800   0.00075
5.30900   0.00075
5.31000   0.00075
5.31100   1.19E-03
5.31200   2.54E-03
5.31300   3.88E-03
5.31400   4.56E-03
5.31500   4.58E-03
5.31600   4.59E-03
5.31700   4.30E-03
5.31800   0.0038579
5.31900   3.42E-03
5.32000   2.84E-03
5.32100   2.24E-03
5.32200   1.67E-03
5.32300   2.62E-03
5.32400   3.57E-03
5.32500   4.29E-03
5.32600   3.95E-03
5.32700   3.62E-03
5.32800   3.23E-03
5.32900   2.73E-03
5.33000   2.24E-03
5.33100   2.18E-03
5.33200   2.53E-03
5.33300   2.88E-03
5.33400   0.003
5.33500   0.003
5.33600   0.003
5.33700   2.84E-03
5.33800   2.65E-03
5.33900   2.46E-03
5.34000   2.50E-03
5.34100   2.55E-03
5.34200   2.64E-03
5.34300   2.97E-03
5.34400   3.31E-03
5.34500   3.61E-03
5.34600   3.84E-03
5.34700   4.06E-03
5.34800   4.16E-03
5.34900   4.05E-03
5.35000   3.95E-03
5.35100   3.69E-03
5.35200   3.31E-03
5.35300   2.92E-03
5.35400   2.68E-03
5.35500   2.51E-03
5.35600   2.33E-03
5.35700   2.29E-03
5.35800   2.27E-03
5.35900   2.25E-03
5.36000   2.12E-03
5.36100   1.98E-03
5.36200   1.86E-03
5.36300   2.04E-03
5.36400   2.21E-03
5.36500   0.00235
5.36600   0.00235
5.36700   0.00235
5.36800   2.54E-03
5.36900   3.15E-03
5.37000   3.75E-03
5.37100   3.99E-03
5.37200   3.73E-03
5.37300   3.47E-03
5.37400   3.10E-03
5.37500   2.63E-03
5.37600   2.16E-03
5.37700   2.59E-03
5.37800   3.49E-03
5.37900   4.39E-03
5.38000   4.10E-03
5.38100   3.44E-03
5.38200   2.79E-03
5.38300   2.58E-03
5.38400   2.44E-03
5.38500   2.30E-03
5.38600   0.0023
5.38700   0.0023
5.38800   2.30E-03
5.38900   2.28E-03
5.39000   2.26E-03
5.39100   2.18E-03
5.39200   1.75E-03
5.39300   1.32E-03
5.39400   1.11E-03
5.39500   1.52E-03
5.39600   1.93E-03
5.39700   0.0022
5.39800   0.0022
5.39900   0.0022
5.40000   2.15E-03
5.40100   2.03E-03
5.40200   1.91E-03
5.40300   1.64E-03
5.40400   1.23E-03
5.40500   8.17E-04
5.40600   6.40E-04
5.40700   6.23E-04
5.40800   6.06E-04
5.40900   1.04E-03
5.41000   1.69E-03
5.41100   2.33E-03
5.41200   2.45E-03
5.41300   0.0023809
5.41400   2.31E-03
5.41500   2.17E-03
5.41600   2.02E-03
5.41700   1.87E-03
5.41800   1.90E-03
5.41900   1.95E-03
5.42000   2.00E-03
5.42100   2.19E-03
5.42200   2.40E-03
5.42300   2.60E-03
5.42400   3.04E-03
5.42500   3.49E-03
5.42600   3.86E-03
5.42700   3.23E-03
5.42800   2.60E-03
5.42900   2.01E-03
5.43000   1.65E-03
5.43100   1.30E-03
5.43200   1.11E-03
5.43300   1.79E-03
5.43400   2.47E-03
5.43500   3.02E-03
5.43600   3.10E-03
5.43700   3.19E-03
5.43800   3.14E-03
5.43900   2.72E-03
5.44000   2.29E-03
5.44100   2.10E-03
5.44200   2.44E-03
5.44300   2.78E-03
5.44400   2.84E-03
5.44500   2.37E-03
5.44600   1.89E-03
5.44700   1.54E-03
5.44800   1.39E-03
5.44900   1.24E-03
5.45000   1.40E-03
5.45100   2.00E-03
5.45200   2.61E-03
5.45300   2.79E-03
5.45400   2.42E-03
5.45500   2.05E-03
5.45600   1.90E-03
5.45700   2.02E-03
5.45800   2.14E-03
5.45900   2.14E-03
5.46000   2.03E-03
5.46100   1.91E-03
5.46200   1.93E-03
5.46300   2.10E-03
5.46400   2.27E-03
5.46500   2.51E-03
5.46600   2.81E-03
5.46700   3.11E-03
5.46800   3.46E-03
5.46900   0.0038644
5.47000   4.27E-03
5.47100   4.09E-03
5.47200   3.42E-03
5.47300   2.75E-03
5.47400   2.75E-03
5.47500   3.30E-03
5.47600   3.85E-03
5.47700   4.03E-03
5.47800   3.89E-03
5.47900   3.76E-03
5.48000   3.32E-03
5.48100   2.62E-03
5.48200   1.92E-03
5.48300   1.47E-03
5.48400   1.24E-03
5.48500   1.01E-03
5.48600   1.07E-03
5.48700   1.38E-03
5.48800   1.70E-03
5.48900   1.90E-03
5.49000   2.00E-03
5.49100   2.10E-03
5.49200   2.01E-03
5.49300   1.75E-03
5.49400   1.48E-03
5.49500   1.42E-03
5.49600   1.55E-03
5.49700   1.68E-03
5.49800   1.58E-03
5.49900   1.21E-03
5.50000   8.50E-04
5.50100   7.54E-04
5.50200   9.85E-04
5.50300   1.22E-03
5.50400   1.41E-03
5.50500   1.54E-03
5.50600   1.67E-03
5.50700   1.78E-03
5.50800   1.86E-03
5.50900   1.95E-03
5.51000   2.14E-03
5.51100   2.51E-03
5.51200   2.89E-03
5.51300   2.97E-03
5.51400   2.41E-03
5.51500   1.85E-03
5.51600   1.58E-03
5.51700   2.04E-03
5.51800   2.50E-03
5.51900   2.90E-03
5.52000   3.09E-03
5.52100   3.29E-03
5.52200   3.36E-03
5.52300   2.88E-03
5.52400   2.41E-03
5.52500   2.08E-03
5.52600   2.63E-03
5.52700   3.19E-03
5.52800   3.68E-03
5.52900   3.51E-03
5.53000   3.33E-03
5.53100   3.15E-03
5.53200   3.20E-03
5.53300   3.25E-03
5.53400   3.30E-03
5.53500   2.81E-03
5.53600   2.31E-03
5.53700   1.80E-03
5.53800   2.15E-03
5.53900   2.59E-03
5.54000   3.03E-03
5.54100   3.17E-03
5.54200   3.25E-03
5.54300   3.33E-03
5.54400   0.00335
5.54500   0.00335
5.54600   0.00335
5.54700   0.0034171
5.54800   3.51E-03
5.54900   3.61E-03
5.55000   3.68E-03
5.55100   0.0037284
5.55200   3.78E-03
5.55300   4.01E-03
5.55400   4.42E-03
5.55500   4.82E-03
5.55600   4.55E-03
5.55700   3.44E-03
5.55800   2.32E-03
5.55900   1.55E-03
5.56000   1.42E-03
5.56100   1.30E-03
5.56200   1.23E-03
5.56300   1.36E-03
5.56400   1.49E-03
5.56500   1.60E-03
5.56600   1.58E-03
5.56700   1.56E-03
5.56800   1.57E-03
5.56900   1.84E-03
5.57000   2.12E-03
5.57100   2.39E-03
5.57200   2.23E-03
5.57300   2.05E-03
5.57400   1.87E-03
5.57500   2.11E-03
5.57600   2.42E-03
5.57700   2.73E-03
5.57800   2.62E-03
5.57900   2.38E-03
5.58000   2.14E-03
5.58100   2.48E-03
5.58200   3.16E-03
5.58300   3.83E-03
5.58400   3.82E-03
5.58500   3.20E-03
5.58600   2.57E-03
5.58700   2.21E-03
5.58800   2.25E-03
5.58900   2.28E-03
5.59000   2.25E-03
5.59100   2.09E-03
5.59200   1.93E-03
5.59300   1.83E-03
5.59400   2.04E-03
5.59500   2.25E-03
5.59600   2.45E-03
5.59700   2.58E-03
5.59800   2.71E-03
5.59900   2.84E-03
5.60000   2.96E-03
5.60100   3.09E-03
5.60200   3.22E-03
5.60300   3.47E-03
5.60400   3.75E-03
5.60500   4.04E-03
5.60600   3.78E-03
5.60700   3.17E-03
5.60800   2.57E-03
5.60900   2.60E-03
5.61000   3.35E-03
5.61100   4.10E-03
5.61200   4.66E-03
5.61300   4.83E-03
5.61400   5.01E-03
5.61500   5.07E-03
5.61600   4.59E-03
5.61700   4.11E-03
5.61800   3.64E-03
5.61900   3.34E-03
5.62000   3.04E-03
5.62100   2.74E-03
5.62200   2.80E-03
5.62300   2.91E-03
5.62400   3.02E-03
5.62500   3.22E-03
5.62600   3.45E-03
5.62700   3.69E-03
5.62800   3.30E-03
5.62900   2.37E-03
5.63000   1.44E-03
5.63100   8.67E-04
5.63200   9.15E-04
5.63300   9.62E-04
5.63400   1.08E-03
5.63500   1.49E-03
5.63600   1.90E-03
5.63700   2.30E-03
5.63800   2.24E-03
5.63900   2.17E-03
5.64000   2.11E-03
5.64100   2.29E-03
5.64200   2.51E-03
5.64300   2.73E-03
5.64400   3.10E-03
5.64500   3.55E-03
5.64600   4.01E-03
5.64700   4.15E-03
5.64800   3.93E-03
5.64900   3.71E-03
5.65000   3.44E-03
5.65100   3.07E-03
5.65200   2.69E-03
5.65300   2.30E-03
5.65400   1.70E-03
5.65500   1.11E-03
5.65600   5.14E-04
5.65700   5.06E-04
5.65800   5.68E-04
5.65900   6.31E-04
5.66000   8.98E-04
5.66100   1.26E-03
5.66200   1.62E-03
5.66300   1.63E-03
5.66400   1.29E-03
5.66500   9.48E-04
5.66600   8.64E-04
5.66700   1.46E-03
5.66800   2.05E-03
5.66900   2.63E-03
5.67000   3.06E-03
5.67100   3.50E-03
5.67200   3.93E-03
5.67300   3.37E-03
5.67400   2.62E-03
5.67500   1.88E-03
5.67600   1.31E-03
5.67700   8.41E-04
5.67800   3.75E-04
5.67900   0
5.68000   0
5.68100   0
5.68200   0
5.68300   0
5.68400   0
5.68500   0
5.68600   0
5.68700   0
5.68800   0
5.68900   0
5.69000   3.18E-04
5.69100   1.26E-03
5.69200   1.79E-03
5.69300   1.89E-03
5.69400   1.98E-03
5.69500   2.18E-03
5.69600   2.74E-03
5.69700   3.29E-03
5.69800   3.85E-03
5.69900   3.57E-03
5.70000   3.30E-03
5.70100   3.02E-03
5.70200   2.86E-03
5.70300   2.74E-03
5.70400   2.61E-03
5.70500   2.67E-03
5.70600   2.92E-03
5.70700   3.16E-03
5.70800   3.37E-03
5.70900   3.44E-03
5.71000   3.52E-03
5.71100   3.60E-03
5.71200   3.91E-03
5.71300   4.24E-03
5.71400   4.56E-03
5.71500   4.37E-03
5.71600   3.97E-03
5.71700   3.57E-03
5.71800   0.0029603
5.71900   2.09E-03
5.72000   1.22E-03
5.72100   4.84E-04
5.72200   3.92E-04
5.72300   3.01E-04
5.72400   2.09E-04
5.72500   7.36E-04
5.72600   1.33E-03
5.72700   1.93E-03
5.72800   2.30E-03
5.72900   2.55E-03
5.73000   2.79E-03
5.73100   2.84E-03
5.73200   2.52E-03
5.73300   2.20E-03
5.73400   1.91E-03
5.73500   2.00E-03
5.73600   0.0020874
5.73700   2.18E-03
5.73800   2.37E-03
5.73900   2.60E-03
5.74000   2.83E-03
5.74100   2.58E-03
5.74200   1.79E-03
5.74300   1.00E-03
5.74400   4.51E-04
5.74500   1.03E-03
5.74600   1.60E-03
5.74700   2.18E-03
5.74800   2.59E-03
5.74900   2.99E-03
5.75000   3.38E-03
5.75100   3.64E-03
5.75200   3.81E-03
5.75300   3.98E-03
5.75400   3.81E-03
5.75500   2.67E-03
5.75600   1.54E-03
5.75700   4.09E-04
5.75800   9.07E-04
5.75900   1.50E-03
5.76000   2.08E-03
5.76100   2.69E-03
5.76200   3.31E-03
5.76300   3.92E-03
5.76400   4.34E-03
5.76500   4.29E-03
5.76600   4.25E-03
5.76700   4.20E-03
5.76800   4.05E-03
5.76900   3.90E-03
5.77000   3.75E-03
5.77100   3.74E-03
5.77200   3.80E-03
5.77300   3.86E-03
5.77400   3.91E-03
5.77500   3.96E-03
5.77600   4.00E-03
5.77700   4.05E-03
5.77800   3.69E-03
5.77900   3.33E-03
5.78000   2.97E-03
5.78100   2.84E-03
5.78200   2.83E-03
5.78300   2.81E-03
5.78400   2.86E-03
5.78500   3.03E-03
5.78600   3.21E-03
5.78700   3.39E-03
5.78800   3.30E-03
5.78900   3.19E-03
5.79000   3.09E-03
5.79100   2.81E-03
5.79200   2.43E-03
5.79300   2.04E-03
5.79400   1.77E-03
5.79500   1.86E-03
5.79600   1.95E-03
5.79700   2.04E-03
5.79800   2.29E-03
5.79900   2.56E-03
5.80000   2.83E-03
5.80100   2.86E-03
5.80200   2.70E-03
5.80300   2.54E-03
5.80400   2.43E-03
5.80500   2.63E-03
5.80600   2.82E-03
5.80700   3.01E-03
5.80800   2.56E-03
5.80900   1.96E-03
5.81000   1.35E-03
5.81100   1.22E-03
5.81200   1.74E-03
5.81300   2.26E-03
5.81400   2.74E-03
5.81500   2.44E-03
5.81600   2.14E-03
5.81700   1.85E-03
5.81800   1.80E-03
5.81900   1.87E-03
5.82000   1.95E-03
5.82100   2.03E-03
5.82200   2.13E-03
5.82300   2.24E-03
5.82400   2.34E-03
5.82500   2.53E-03
5.82600   2.74E-03
5.82700   2.95E-03
5.82800   3.28E-03
5.82900   3.75E-03
5.83000   4.22E-03
5.83100   4.63E-03
5.83200   4.47E-03
5.83300   4.31E-03
5.83400   4.15E-03
5.83500   4.04E-03
5.83600   3.95E-03
5.83700   3.86E-03
5.83800   3.71E-03
5.83900   3.38E-03
5.84000   3.06E-03
5.84100   2.74E-03
5.84200   2.55E-03
5.84300   2.37E-03
5.84400   2.19E-03
5.84500   0.0019708
5.84600   1.69E-03
5.84700   1.41E-03
5.84800   1.20E-03
5.84900   2.36E-03
5.85000   3.51E-03
5.85100   4.67E-03
5.85200   5.01E-03
5.85300   4.86E-03
5.85400   4.72E-03
5.85500   4.46E-03
5.85600   3.78E-03
5.85700   3.09E-03
5.85800   2.41E-03
5.85900   2.68E-03
5.86000   3.23E-03
5.86100   3.78E-03
5.86200   4.22E-03
5.86300   4.44E-03
5.86400   4.66E-03
5.86500   4.88E-03
5.86600   5.02E-03
5.86700   5.15E-03
5.86800   5.28E-03
5.86900   5.08E-03
5.87000   4.48E-03
5.87100   3.89E-03
5.87200   3.29E-03
5.87300   2.26E-03
5.87400   1.23E-03
5.87500   2.03E-04
5.87600   0
5.87700   0
5.87800   0
5.87900   0
5.88000   1.04E-04
5.88100   3.78E-04
5.88200   6.53E-04
5.88300   1.35E-03
5.88400   2.27E-03
5.88500   3.20E-03
5.88600   3.99E-03
5.88700   4.19E-03
5.88800   4.39E-03
5.88900   4.59E-03
5.89000   4.22E-03
5.89100   3.61E-03
5.89200   3.01E-03
5.89300   2.45E-03
5.89400   2.05E-03
5.89500   1.64E-03
5.89600   1.24E-03
5.89700   7.16E-04
5.89800   1.56E-04
5.89900   0
5.90000   0
5.90100   0
5.90200   0
5.90300   0
5.90400   0
5.90500   3.96E-06
5.90600   6.13E-05
5.90700   5.80E-05
5.90800   0
5.90900   0
5.91000   0
5.91100   0
5.91200   3.59E-04
5.91300   7.45E-04
5.91400   1.03E-03
5.91500   1.11E-03
5.91600   1.20E-03
5.91700   1.29E-03
5.91800   9.40E-04
5.91900   5.12E-04
5.92000   8.39E-05
5.92100   0
5.92200   1.24E-04
5.92300   3.66E-04
5.92400   6.09E-04
5.92500   6.62E-04
5.92600   6.76E-04
5.92700   6.90E-04
5.92800   8.13E-04
5.92900   1.17E-03
5.93000   1.52E-03
5.93100   1.88E-03
5.93200   2.02E-03
5.93300   2.10E-03
5.93400   2.19E-03
5.93500   2.30E-03
5.93600   2.47E-03
5.93700   2.64E-03
5.93800   2.81E-03
5.93900   2.98E-03
5.94000   3.15E-03
5.94100   3.32E-03
5.94200   3.51E-03
5.94300   3.75E-03
5.94400   3.99E-03
5.94500   4.23E-03
5.94600   4.29E-03
5.94700   4.28E-03
5.94800   4.26E-03
5.94900   4.23E-03
5.95000   4.10E-03
5.95100   3.98E-03
5.95200   0.0038484
5.95300   3.46E-03
5.95400   2.91E-03
5.95500   2.36E-03
5.95600   1.81E-03
5.95700   1.32E-03
5.95800   8.28E-04
5.95900   3.34E-04
5.96000   7.64E-04
5.96100   2.03E-03
5.96200   3.30E-03
5.96300   4.56E-03
5.96400   4.86E-03
5.96500   5.13E-03
5.96600   5.39E-03
5.96700   5.45E-03
5.96800   5.19E-03
5.96900   4.94E-03
5.97000   4.69E-03
5.97100   4.24E-03
5.97200   3.77E-03
5.97300   3.29E-03
5.97400   2.91E-03
5.97500   2.75E-03
5.97600   2.60E-03
5.97700   2.44E-03
5.97800   2.95E-03
5.97900   3.72E-03
5.98000   4.49E-03
5.98100   5.11E-03
5.98200   4.82E-03
5.98300   4.52E-03
5.98400   4.23E-03
5.98500   4.12E-03
5.98600   4.14E-03
5.98700   4.17E-03
5.98800   4.20E-03
5.98900   3.97E-03
5.99000   3.73E-03
5.99100   3.49E-03
5.99200   3.37E-03
5.99300   3.43E-03
5.99400   3.48E-03
5.99500   3.54E-03
5.99600   3.27E-03
5.99700   2.93E-03
5.99800   2.58E-03
5.99900   2.22E-03
6.00000   1.80E-03
